timestamp,acel_x,acel_y,acel_z,gyro_x,gyro_y,gyro_z
2025-12-17 14:30:51.485,-0.23,0.16,9.01,-0.01,-0.08,0.12
2025-12-17 14:30:51.508,-0.2,0.09,9.08,-0.01,-0.08,0.13
2025-12-17 14:30:51.531,-0.14,0.21,9.07,-0.01,-0.08,0.13
2025-12-17 14:30:51.554,-0.14,0.21,9.0,-0.0,-0.08,0.13
2025-12-17 14:30:51.577,-0.17,0.15,9.03,-0.0,-0.08,0.13
2025-12-17 14:30:51.600,-0.32,0.18,9.07,-0.0,-0.08,0.13
2025-12-17 14:30:51.623,-0.21,0.18,8.89,-0.01,-0.08,0.13
2025-12-17 14:30:51.645,-0.28,0.18,8.94,-0.01,-0.08,0.13
2025-12-17 14:30:51.668,-0.29,0.23,9.05,-0.01,-0.08,0.13
2025-12-17 14:30:51.692,-0.34,0.23,8.97,-0.01,-0.08,0.13
2025-12-17 14:30:51.715,-0.25,0.17,9.02,-0.01,-0.08,0.13
2025-12-17 14:30:51.738,-0.18,0.14,8.98,-0.01,-0.09,0.13
2025-12-17 14:30:51.760,-0.16,0.17,9.06,-0.01,-0.08,0.13
2025-12-17 14:30:51.784,-0.15,0.14,9.11,-0.01,-0.08,0.13
2025-12-17 14:30:51.807,-0.16,0.13,9.08,-0.01,-0.08,0.13
2025-12-17 14:30:51.830,-0.19,0.19,8.99,-0.01,-0.08,0.13
2025-12-17 14:30:51.853,-0.2,0.15,9.02,-0.0,-0.08,0.13
2025-12-17 14:30:51.876,-0.26,0.13,9.04,-0.0,-0.08,0.13
2025-12-17 14:30:51.899,-0.29,0.22,9.09,-0.0,-0.08,0.13
2025-12-17 14:30:51.922,-0.29,0.28,9.05,-0.0,-0.08,0.13
2025-12-17 14:30:51.945,-0.28,0.2,9.0,-0.01,-0.08,0.13
2025-12-17 14:30:51.968,-0.22,0.2,9.02,-0.01,-0.08,0.13
2025-12-17 14:30:51.991,-0.26,0.11,9.02,-0.01,-0.08,0.13
2025-12-17 14:30:52.014,-0.2,0.21,9.06,-0.01,-0.08,0.13
2025-12-17 14:30:52.037,-0.24,0.26,9.11,-0.01,-0.08,0.13
2025-12-17 14:30:52.060,-0.24,0.15,9.0,-0.01,-0.08,0.13
2025-12-17 14:30:52.083,-0.16,0.2,9.01,-0.01,-0.08,0.13
2025-12-17 14:30:52.106,-0.25,0.16,9.09,-0.01,-0.08,0.13
2025-12-17 14:30:52.129,-0.16,0.16,8.96,-0.01,-0.08,0.12
2025-12-17 14:30:52.152,-0.19,0.28,9.06,-0.01,-0.08,0.13
2025-12-17 14:30:52.175,-0.13,0.23,9.04,-0.01,-0.08,0.13
2025-12-17 14:30:52.198,-0.11,0.2,9.08,-0.01,-0.08,0.12
2025-12-17 14:30:52.221,-0.27,0.21,8.98,-0.01,-0.08,0.12
2025-12-17 14:30:52.244,-0.24,0.24,9.03,-0.01,-0.08,0.12
2025-12-17 14:30:52.267,-0.31,0.21,9.1,-0.01,-0.08,0.13
2025-12-17 14:30:52.290,-0.29,0.2,9.06,-0.01,-0.08,0.13
2025-12-17 14:30:52.312,-0.3,0.15,8.95,-0.01,-0.08,0.13
2025-12-17 14:30:52.336,-0.28,0.17,9.03,-0.01,-0.08,0.13
2025-12-17 14:30:52.359,-0.22,0.15,9.09,-0.01,-0.08,0.13
2025-12-17 14:30:52.381,-0.23,0.14,9.05,-0.0,-0.08,0.13
2025-12-17 14:30:52.405,-0.2,0.18,9.02,-0.0,-0.08,0.13
2025-12-17 14:30:52.428,-0.26,0.16,8.95,-0.0,-0.08,0.13
2025-12-17 14:30:52.451,-0.15,0.19,9.1,-0.0,-0.08,0.13
2025-12-17 14:30:52.474,-0.19,0.18,9.05,-0.01,-0.08,0.12
2025-12-17 14:30:52.497,-0.19,0.23,9.06,-0.01,-0.08,0.13
2025-12-17 14:30:52.520,-0.26,0.21,9.03,-0.01,-0.08,0.12
2025-12-17 14:30:52.543,-0.3,0.26,9.01,-0.01,-0.08,0.12
2025-12-17 14:30:52.566,-0.28,0.16,8.99,-0.01,-0.08,0.13
2025-12-17 14:30:52.589,-0.27,0.17,9.0,-0.01,-0.08,0.12
2025-12-17 14:30:52.612,-0.23,0.15,9.13,-0.01,-0.08,0.13
2025-12-17 14:30:52.635,-0.19,0.1,9.11,-0.01,-0.08,0.13
2025-12-17 14:30:52.658,-0.28,0.16,8.94,-0.0,-0.08,0.13
2025-12-17 14:30:52.681,-0.25,0.21,9.01,-0.0,-0.08,0.13
2025-12-17 14:30:52.704,-0.27,0.14,9.02,-0.0,-0.08,0.13
2025-12-17 14:30:52.726,-0.23,0.19,9.1,-0.01,-0.08,0.12
2025-12-17 14:30:52.749,-0.19,0.21,8.98,-0.01,-0.08,0.13
2025-12-17 14:30:52.773,-0.25,0.22,9.03,-0.01,-0.08,0.13
2025-12-17 14:30:52.796,-0.11,0.2,8.97,-0.01,-0.08,0.13
2025-12-17 14:30:52.819,-0.16,0.28,8.99,-0.01,-0.08,0.13
2025-12-17 14:30:52.842,-0.22,0.16,9.04,-0.01,-0.08,0.13
2025-12-17 14:30:52.865,-0.21,0.09,9.16,-0.01,-0.08,0.12
2025-12-17 14:30:52.888,-0.28,0.18,9.06,-0.01,-0.08,0.12
2025-12-17 14:30:52.911,-0.32,0.19,9.06,-0.01,-0.08,0.13
2025-12-17 14:30:52.934,-0.18,0.11,9.01,-0.01,-0.08,0.13
2025-12-17 14:30:52.957,-0.24,0.19,9.07,-0.01,-0.08,0.13
2025-12-17 14:30:52.980,-0.26,0.2,9.05,-0.01,-0.08,0.13
2025-12-17 14:30:53.003,-0.21,0.2,9.03,-0.01,-0.08,0.13
2025-12-17 14:30:53.026,-0.22,0.23,9.12,-0.01,-0.08,0.13
2025-12-17 14:30:53.048,-0.2,0.19,9.04,-0.01,-0.08,0.13
2025-12-17 14:30:53.072,-0.21,0.26,9.07,-0.01,-0.08,0.12
2025-12-17 14:30:53.095,-0.23,0.19,9.03,-0.01,-0.08,0.13
2025-12-17 14:30:53.117,-0.27,0.18,8.97,-0.01,-0.08,0.13
2025-12-17 14:30:53.141,-0.26,0.15,9.05,-0.01,-0.08,0.13
2025-12-17 14:30:53.164,-0.2,0.13,9.05,-0.01,-0.08,0.13
2025-12-17 14:30:53.187,-0.18,0.12,9.08,-0.01,-0.08,0.13
2025-12-17 14:30:53.209,-0.22,0.22,9.03,-0.01,-0.08,0.13
2025-12-17 14:30:53.233,-0.21,0.16,9.06,-0.01,-0.08,0.13
2025-12-17 14:30:53.256,-0.21,0.14,9.05,-0.01,-0.08,0.13
2025-12-17 14:30:53.279,-0.24,0.19,9.13,-0.01,-0.08,0.13
2025-12-17 14:30:53.302,-0.2,0.2,9.03,-0.01,-0.08,0.13
2025-12-17 14:30:53.325,-0.23,0.18,9.01,-0.01,-0.08,0.13
2025-12-17 14:30:53.348,-0.16,0.16,9.0,-0.01,-0.08,0.12
2025-12-17 14:30:53.371,-0.18,0.18,8.95,-0.01,-0.08,0.12
2025-12-17 14:30:53.394,-0.22,0.13,9.04,-0.01,-0.08,0.13
2025-12-17 14:30:53.416,-0.19,0.09,8.99,-0.01,-0.08,0.13
2025-12-17 14:30:53.440,-0.23,0.19,9.05,-0.01,-0.08,0.13
2025-12-17 14:30:53.463,-0.23,0.16,8.96,-0.01,-0.08,0.13
2025-12-17 14:30:53.486,-0.19,0.2,9.01,-0.01,-0.08,0.13
2025-12-17 14:30:53.509,-0.21,0.11,9.05,-0.0,-0.08,0.13
2025-12-17 14:30:53.532,-0.23,0.23,9.01,-0.01,-0.08,0.13
2025-12-17 14:30:53.555,-0.27,0.23,9.04,-0.01,-0.08,0.12
2025-12-17 14:30:53.578,-0.23,0.22,9.19,-0.01,-0.08,0.13
2025-12-17 14:30:53.601,-0.19,0.26,9.1,-0.01,-0.08,0.13
2025-12-17 14:30:53.624,-0.17,0.16,9.07,-0.01,-0.08,0.13
2025-12-17 14:30:53.647,-0.2,0.13,9.05,-0.01,-0.08,0.13
2025-12-17 14:30:53.670,-0.23,0.23,9.01,-0.01,-0.08,0.13
2025-12-17 14:30:53.693,-0.24,0.16,9.05,-0.01,-0.08,0.12
2025-12-17 14:30:53.715,-0.21,0.14,8.9,-0.01,-0.08,0.13
2025-12-17 14:30:53.739,-0.2,0.22,9.09,-0.01,-0.08,0.13
2025-12-17 14:30:53.762,-0.21,0.16,9.06,-0.01,-0.08,0.13
2025-12-17 14:30:53.785,-0.18,0.22,9.04,-0.01,-0.08,0.13
2025-12-17 14:30:53.808,-0.21,0.23,9.06,-0.01,-0.08,0.13
2025-12-17 14:30:53.831,-0.19,0.17,9.05,-0.01,-0.08,0.12
2025-12-17 14:30:53.853,-0.25,0.16,9.09,-0.01,-0.08,0.13
2025-12-17 14:30:53.876,-0.24,0.21,9.04,-0.01,-0.08,0.13
2025-12-17 14:30:53.899,-0.21,0.14,9.02,-0.01,-0.08,0.13
2025-12-17 14:30:53.923,-0.21,0.12,9.02,-0.01,-0.08,0.13
2025-12-17 14:30:53.946,-0.25,0.21,9.01,-0.01,-0.08,0.12
2025-12-17 14:30:53.969,-0.25,0.15,9.05,-0.01,-0.08,0.13
2025-12-17 14:30:53.992,-0.19,0.17,9.07,-0.01,-0.08,0.12
2025-12-17 14:30:54.015,-0.27,0.25,9.13,-0.01,-0.08,0.13
2025-12-17 14:30:54.038,-0.11,0.08,8.94,-0.01,-0.08,0.13
2025-12-17 14:30:54.061,-0.22,0.25,9.07,-0.01,-0.08,0.13
2025-12-17 14:30:54.084,-0.17,0.16,9.12,-0.01,-0.08,0.13
2025-12-17 14:30:54.107,-0.24,0.14,9.02,-0.01,-0.08,0.12
2025-12-17 14:30:54.130,-0.25,0.18,9.06,-0.01,-0.08,0.13
2025-12-17 14:30:54.153,-0.26,0.15,9.08,-0.01,-0.08,0.13
2025-12-17 14:30:54.176,-0.22,0.16,9.05,-0.01,-0.08,0.13
2025-12-17 14:30:54.199,-0.27,0.22,8.96,-0.01,-0.08,0.13
2025-12-17 14:30:54.222,-0.3,0.15,9.1,-0.0,-0.08,0.13
2025-12-17 14:30:54.245,-0.27,0.21,8.94,-0.01,-0.08,0.13
2025-12-17 14:30:54.268,-0.26,0.23,8.94,-0.01,-0.08,0.13
2025-12-17 14:30:54.291,-0.25,0.29,8.96,-0.0,-0.08,0.13
2025-12-17 14:30:54.313,-0.23,0.21,9.04,-0.01,-0.08,0.13
2025-12-17 14:30:54.337,-0.17,0.17,9.05,-0.01,-0.08,0.13
2025-12-17 14:30:54.360,-0.19,0.25,9.0,-0.01,-0.08,0.12
2025-12-17 14:30:54.383,-0.2,0.22,9.02,-0.01,-0.08,0.13
2025-12-17 14:30:54.406,-0.23,0.19,8.97,-0.01,-0.08,0.13
2025-12-17 14:30:54.429,-0.27,0.19,9.05,-0.01,-0.08,0.13
2025-12-17 14:30:54.452,-0.17,0.1,9.06,-0.01,-0.08,0.13
2025-12-17 14:30:54.475,-0.25,0.13,9.07,-0.01,-0.08,0.12
2025-12-17 14:30:54.498,-0.25,0.19,9.05,-0.01,-0.08,0.13
2025-12-17 14:30:54.521,-0.23,0.2,9.07,-0.0,-0.08,0.13
2025-12-17 14:30:54.544,-0.25,0.24,9.04,-0.01,-0.08,0.13
2025-12-17 14:30:54.567,-0.28,0.22,9.13,-0.01,-0.08,0.13
2025-12-17 14:30:54.589,-0.33,0.24,9.0,-0.01,-0.08,0.13
2025-12-17 14:30:54.613,-0.2,0.22,9.07,-0.01,-0.08,0.13
2025-12-17 14:30:54.635,-0.18,0.21,9.03,-0.01,-0.08,0.13
2025-12-17 14:30:54.659,-0.25,0.17,9.01,-0.01,-0.08,0.13
2025-12-17 14:30:54.681,-0.21,0.16,9.18,-0.01,-0.08,0.13
2025-12-17 14:30:54.704,-0.14,0.13,9.04,-0.01,-0.08,0.13
2025-12-17 14:30:54.728,-0.2,0.16,9.03,-0.01,-0.08,0.13
2025-12-17 14:30:54.751,-0.18,0.11,9.11,-0.0,-0.08,0.13
2025-12-17 14:30:54.774,-0.23,0.18,8.95,-0.01,-0.08,0.13
2025-12-17 14:30:54.797,-0.26,0.17,8.89,-0.01,-0.08,0.12
2025-12-17 14:30:54.820,-0.25,0.24,9.0,-0.01,-0.08,0.13
2025-12-17 14:30:54.843,-0.26,0.21,8.99,-0.01,-0.08,0.13
2025-12-17 14:30:54.866,-0.26,0.16,8.92,-0.01,-0.08,0.12
2025-12-17 14:30:54.889,-0.17,0.12,9.07,-0.01,-0.08,0.12
2025-12-17 14:30:54.912,-0.16,0.17,9.0,-0.01,-0.08,0.12
2025-12-17 14:30:54.935,-0.22,0.15,9.05,-0.01,-0.08,0.13
2025-12-17 14:30:54.958,-0.21,0.15,9.04,-0.01,-0.08,0.13
2025-12-17 14:30:54.981,-0.24,0.13,9.03,-0.01,-0.08,0.13
2025-12-17 14:30:55.004,-0.22,0.21,9.06,-0.01,-0.09,0.13
2025-12-17 14:30:55.027,-0.19,0.16,8.98,-0.01,-0.08,0.13
2025-12-17 14:30:55.050,-0.22,0.12,9.12,-0.01,-0.08,0.13
2025-12-17 14:30:55.072,-0.2,0.25,9.05,-0.01,-0.08,0.13
2025-12-17 14:30:55.096,-0.16,0.2,9.03,-0.01,-0.08,0.13
2025-12-17 14:30:55.119,-0.26,0.23,9.03,-0.01,-0.08,0.13
2025-12-17 14:30:55.142,-0.25,0.25,8.94,-0.01,-0.08,0.13
2025-12-17 14:30:55.165,-0.23,0.23,8.98,-0.01,-0.08,0.13
2025-12-17 14:30:55.188,-0.18,0.14,9.03,-0.01,-0.08,0.12
2025-12-17 14:30:55.211,-0.23,0.17,8.98,-0.01,-0.08,0.13
2025-12-17 14:30:55.234,-0.25,0.17,8.96,-0.01,-0.08,0.12
2025-12-17 14:30:55.257,-0.2,0.11,9.09,-0.01,-0.08,0.12
2025-12-17 14:30:55.280,-0.17,0.11,8.99,-0.01,-0.08,0.13
2025-12-17 14:30:55.303,-0.18,0.13,9.06,-0.01,-0.08,0.13
2025-12-17 14:30:55.325,-0.18,0.16,9.08,-0.01,-0.08,0.13
2025-12-17 14:30:55.348,-0.2,0.14,9.05,-0.01,-0.08,0.13
2025-12-17 14:30:55.372,-0.28,0.23,9.02,-0.01,-0.08,0.13
2025-12-17 14:30:55.395,-0.24,0.19,9.05,-0.01,-0.08,0.13
2025-12-17 14:30:55.418,-0.27,0.15,9.02,-0.01,-0.08,0.12
2025-12-17 14:30:55.441,-0.24,0.24,9.04,-0.01,-0.08,0.13
2025-12-17 14:30:55.464,-0.29,0.19,9.05,-0.01,-0.08,0.13
2025-12-17 14:30:55.487,-0.2,0.18,9.04,-0.01,-0.08,0.13
2025-12-17 14:30:55.510,-0.23,0.18,9.08,-0.01,-0.08,0.13
2025-12-17 14:30:55.533,-0.27,0.14,9.07,-0.01,-0.08,0.13
2025-12-17 14:30:55.556,-0.2,0.22,9.05,-0.01,-0.08,0.13
2025-12-17 14:30:55.579,-0.16,0.18,9.09,-0.01,-0.08,0.13
2025-12-17 14:30:55.602,-0.21,0.16,9.08,-0.01,-0.08,0.13
2025-12-17 14:30:55.625,-0.19,0.23,9.1,-0.01,-0.08,0.13
2025-12-17 14:30:55.648,-0.23,0.28,9.05,-0.01,-0.08,0.13
2025-12-17 14:30:55.671,-0.26,0.23,9.06,-0.01,-0.08,0.13
2025-12-17 14:30:55.694,-0.26,0.17,9.02,-0.01,-0.08,0.13
2025-12-17 14:30:55.717,-0.19,0.16,8.96,-0.01,-0.08,0.13
2025-12-17 14:30:55.740,-0.29,0.12,9.08,-0.01,-0.08,0.12
2025-12-17 14:30:55.763,-0.23,0.17,9.0,-0.0,-0.08,0.13
2025-12-17 14:30:55.786,-0.3,0.22,9.07,-0.0,-0.08,0.13
2025-12-17 14:30:55.809,-0.23,0.15,9.09,-0.0,-0.07,0.13
2025-12-17 14:30:55.832,-0.38,-0.17,9.46,0.02,-0.07,0.13
2025-12-17 14:30:55.855,-0.32,0.14,9.08,0.01,-0.07,0.13
2025-12-17 14:30:55.878,-0.23,0.3,9.12,0.01,-0.07,0.12
2025-12-17 14:30:55.900,-0.35,0.32,9.08,-0.0,-0.08,0.13
2025-12-17 14:30:55.924,-0.27,0.36,8.94,-0.01,-0.08,0.13
2025-12-17 14:30:55.947,-0.13,0.26,9.01,-0.01,-0.08,0.13
2025-12-17 14:30:55.970,-0.0,0.08,9.08,-0.01,-0.08,0.13
2025-12-17 14:30:55.993,-0.17,0.1,9.04,-0.01,-0.08,0.12
2025-12-17 14:30:56.016,-0.29,0.32,9.13,-0.01,-0.09,0.12
2025-12-17 14:30:56.039,-0.09,0.17,9.01,-0.01,-0.08,0.13
2025-12-17 14:30:56.062,-0.13,0.18,9.04,-0.01,-0.08,0.13
2025-12-17 14:30:56.085,-0.3,0.25,9.01,-0.01,-0.08,0.13
2025-12-17 14:30:56.108,-0.33,0.09,9.13,-0.01,-0.08,0.13
2025-12-17 14:30:56.131,-0.24,0.04,9.08,-0.0,-0.08,0.13
2025-12-17 14:30:56.153,-0.26,0.23,9.02,0.0,-0.08,0.13
2025-12-17 14:30:56.177,-0.25,0.24,9.1,-0.0,-0.08,0.12
2025-12-17 14:30:56.200,-0.41,0.27,9.05,-0.0,-0.08,0.13
2025-12-17 14:30:56.223,-0.29,0.29,9.05,-0.01,-0.08,0.12
2025-12-17 14:30:56.246,-0.21,0.2,9.0,-0.01,-0.08,0.13
2025-12-17 14:30:56.269,-0.2,0.17,8.99,-0.01,-0.08,0.13
2025-12-17 14:30:56.292,-0.18,0.22,9.04,-0.01,-0.08,0.12
2025-12-17 14:30:56.315,-0.17,0.33,9.06,-0.01,-0.08,0.13
2025-12-17 14:30:56.338,-0.11,0.23,9.04,-0.01,-0.08,0.13
2025-12-17 14:30:56.361,-0.23,0.15,9.06,-0.01,-0.08,0.12
2025-12-17 14:30:56.384,-0.23,0.15,9.16,-0.01,-0.08,0.13
2025-12-17 14:30:56.407,-0.21,0.11,9.06,-0.01,-0.08,0.13
2025-12-17 14:30:56.430,-0.27,0.19,9.12,-0.0,-0.08,0.13
2025-12-17 14:30:56.453,-0.26,0.23,9.03,-0.0,-0.08,0.13
2025-12-17 14:30:56.476,-0.32,0.29,8.91,-0.0,-0.08,0.13
2025-12-17 14:30:56.498,-0.3,0.21,8.95,-0.01,-0.08,0.13
2025-12-17 14:30:56.521,-0.34,0.25,9.11,-0.01,-0.08,0.12
2025-12-17 14:30:56.544,-0.32,0.26,8.96,-0.01,-0.08,0.13
2025-12-17 14:30:56.568,-0.26,0.19,9.06,-0.01,-0.08,0.13
2025-12-17 14:30:56.591,-0.22,0.25,9.01,-0.01,-0.08,0.12
2025-12-17 14:30:56.614,-0.14,0.14,9.07,-0.01,-0.08,0.12
2025-12-17 14:30:56.637,-0.19,0.17,9.07,-0.01,-0.08,0.13
2025-12-17 14:30:56.660,-0.23,0.2,9.0,-0.01,-0.08,0.13
2025-12-17 14:30:56.683,-0.2,0.17,9.05,-0.01,-0.08,0.13
2025-12-17 14:30:56.706,-0.18,0.18,9.0,-0.0,-0.08,0.13
2025-12-17 14:30:56.729,-0.24,0.17,9.04,-0.0,-0.08,0.12
2025-12-17 14:30:56.752,-0.25,0.2,9.0,-0.0,-0.08,0.13
2025-12-17 14:30:56.774,-0.25,0.27,9.06,-0.0,-0.08,0.13
2025-12-17 14:30:56.798,-0.28,0.29,9.0,-0.01,-0.08,0.13
2025-12-17 14:30:56.821,-0.29,0.25,9.02,-0.01,-0.08,0.13
2025-12-17 14:30:56.844,-0.28,0.22,8.97,-0.01,-0.08,0.13
2025-12-17 14:30:56.867,-0.27,0.2,8.98,-0.01,-0.08,0.13
2025-12-17 14:30:56.890,-0.24,0.16,9.02,-0.01,-0.08,0.13
2025-12-17 14:30:56.913,-0.21,0.12,9.05,-0.01,-0.08,0.13
2025-12-17 14:30:56.936,-0.23,0.17,9.11,-0.01,-0.08,0.12
2025-12-17 14:30:56.959,-0.23,0.16,9.03,-0.01,-0.08,0.13
2025-12-17 14:30:56.982,-0.2,0.17,9.06,-0.0,-0.08,0.13
2025-12-17 14:30:57.004,-0.21,0.16,9.13,-0.01,-0.07,0.13
2025-12-17 14:30:57.028,-0.19,0.16,9.1,-0.01,-0.08,0.13
2025-12-17 14:30:57.051,-0.16,0.22,8.91,-0.01,-0.07,0.13
2025-12-17 14:30:57.074,-4.28,0.86,9.12,0.03,-0.09,-0.03
2025-12-17 14:30:57.097,-5.08,2.47,9.46,-0.17,0.01,-0.33
2025-12-17 14:30:57.120,-2.97,0.5,7.97,0.04,-0.03,-0.91
2025-12-17 14:30:57.143,5.27,0.26,7.83,-0.01,0.26,-0.04
2025-12-17 14:30:57.166,2.56,-3.32,8.62,-0.08,-0.13,0.93
2025-12-17 14:30:57.189,-0.15,-0.23,7.46,-0.0,-0.41,0.3
2025-12-17 14:30:57.212,0.15,0.3,8.82,-0.01,-0.19,-0.08
2025-12-17 14:30:57.235,-3.34,0.86,9.56,0.07,-0.24,-1.53
2025-12-17 14:30:57.258,1.27,-0.08,10.48,-0.32,-0.35,-0.68
2025-12-17 14:30:57.281,1.49,1.33,10.52,-0.4,-0.91,-0.56
2025-12-17 14:30:57.303,3.21,0.7,8.69,-0.13,-1.61,0.46
2025-12-17 14:30:57.327,0.99,0.34,8.08,-0.3,-0.87,0.49
2025-12-17 14:30:57.350,0.4,-0.71,8.5,-0.28,-0.53,0.47
2025-12-17 14:30:57.373,1.65,1.33,9.22,-0.38,-0.07,1.08
2025-12-17 14:30:57.395,0.84,0.17,8.17,-0.35,0.5,1.14
2025-12-17 14:30:57.419,-1.81,-0.51,10.64,-0.06,0.69,1.2
2025-12-17 14:30:57.443,-5.48,-3.55,11.03,-0.13,-0.85,-0.3
2025-12-17 14:30:57.465,2.21,0.92,9.38,-0.76,-1.11,-0.54
2025-12-17 14:30:57.488,0.69,-0.01,11.78,-0.94,-1.02,-0.05
2025-12-17 14:30:57.511,1.58,-2.94,10.3,-1.13,-2.14,-0.44
2025-12-17 14:30:57.534,2.71,0.29,9.36,-1.23,-2.25,-0.63
2025-12-17 14:30:57.557,3.58,-0.62,8.19,-1.07,-1.72,-0.16
2025-12-17 14:30:57.580,2.48,0.99,10.79,-1.05,-1.62,0.92
2025-12-17 14:30:57.603,4.89,0.38,6.9,-0.28,-1.27,2.04
2025-12-17 14:30:57.626,-1.26,-1.58,4.29,0.44,-0.52,1.12
2025-12-17 14:30:57.649,3.05,-1.93,8.05,-0.97,0.31,1.04
2025-12-17 14:30:57.672,5.2,-0.44,10.58,-1.81,-1.16,1.88
2025-12-17 14:30:57.695,5.59,-3.21,7.24,-2.66,-1.06,3.14
2025-12-17 14:30:57.718,4.03,-5.09,5.28,-2.09,0.61,3.63
2025-12-17 14:30:57.741,1.3,-6.92,8.19,-0.86,-0.46,1.37
2025-12-17 14:30:57.764,4.75,-3.02,5.88,-0.6,-0.52,1.7
2025-12-17 14:30:57.787,-0.3,-2.69,8.35,-0.58,0.04,2.24
2025-12-17 14:30:57.810,2.45,-3.06,5.84,-0.5,0.58,1.81
2025-12-17 14:30:57.833,1.15,-5.41,5.1,-0.35,1.68,1.72
2025-12-17 14:30:57.856,-1.87,-5.92,10.41,-0.64,2.69,1.2
2025-12-17 14:30:57.879,-2.93,-5.23,13.08,-0.99,1.34,0.89
2025-12-17 14:30:57.902,1.33,-5.69,7.03,-1.08,1.6,1.3
2025-12-17 14:30:57.925,1.77,-5.75,7.7,-1.22,2.5,1.46
2025-12-17 14:30:57.948,0.31,-7.44,6.78,-1.55,3.26,1.3
2025-12-17 14:30:57.971,-2.73,-6.09,10.91,-1.76,2.34,0.95
2025-12-17 14:30:57.994,-3.62,-6.26,10.14,-2.21,1.46,0.42
2025-12-17 14:30:58.017,-3.33,-6.35,7.78,-2.4,0.66,-0.12
2025-12-17 14:30:58.041,-3.81,-6.72,6.68,-2.61,0.22,-0.21
2025-12-17 14:30:58.063,-2.96,-6.45,7.42,-2.87,0.64,0.02
2025-12-17 14:30:58.086,-3.35,-6.28,6.86,-3.17,1.21,0.13
2025-12-17 14:30:58.109,-3.97,-8.55,6.39,-3.44,0.32,0.08
2025-12-17 14:30:58.132,-3.36,-8.53,4.18,-3.35,-1.03,-0.58
2025-12-17 14:30:58.162,-1.99,-9.38,2.76,-3.6,-0.42,-1.24
2025-12-17 14:30:58.178,-4.85,-10.29,2.76,-3.31,1.07,-1.9
2025-12-17 14:30:58.201,-4.06,-10.02,1.7,-3.56,1.4,-2.41
2025-12-17 14:30:58.224,-3.02,-8.91,1.63,-3.08,0.89,-1.9
2025-12-17 14:30:58.247,-3.26,-9.12,1.07,-2.62,0.11,-1.82
2025-12-17 14:30:58.270,-2.31,-9.57,-1.06,-2.22,0.74,-1.75
2025-12-17 14:30:58.293,-3.77,-8.27,-1.18,-2.06,1.25,-2.07
2025-12-17 14:30:58.316,-2.9,-7.95,-2.37,-1.58,1.19,-1.7
2025-12-17 14:30:58.339,-2.45,-8.3,-2.68,-1.12,0.77,-1.18
2025-12-17 14:30:58.362,-0.88,-8.63,-3.93,-0.58,0.29,-1.07
2025-12-17 14:30:58.385,0.08,-8.01,-3.73,-0.35,0.88,-1.08
2025-12-17 14:30:58.408,1.05,-7.57,-3.72,-0.22,0.94,-0.57
2025-12-17 14:30:58.432,0.97,-7.78,-3.47,-0.09,1.01,-0.28
2025-12-17 14:30:58.454,0.81,-8.48,-3.98,-0.06,1.35,-0.17
2025-12-17 14:30:58.477,1.43,-7.99,-3.38,-0.07,1.28,0.24
2025-12-17 14:30:58.500,1.86,-7.85,-3.75,0.13,1.61,0.29
2025-12-17 14:30:58.523,1.88,-8.49,-2.44,0.19,1.69,0.43
2025-12-17 14:30:58.546,2.03,-7.96,-2.45,0.12,1.6,0.64
2025-12-17 14:30:58.569,2.23,-9.0,-2.12,0.15,1.66,0.72
2025-12-17 14:30:58.592,2.69,-9.92,-1.45,-0.13,1.93,0.72
2025-12-17 14:30:58.615,4.32,-8.69,-0.64,-0.4,1.31,1.15
2025-12-17 14:30:58.638,3.71,-9.24,-2.21,-0.47,1.32,1.22
2025-12-17 14:30:58.661,2.91,-9.29,-2.65,-0.65,1.8,0.94
2025-12-17 14:30:58.684,1.27,-7.91,-1.31,-0.86,1.65,0.73
2025-12-17 14:30:58.707,2.81,-9.85,-1.08,-0.88,1.57,0.3
2025-12-17 14:30:58.730,3.8,-11.79,-2.32,-0.87,1.6,0.3
2025-12-17 14:30:58.753,3.95,-9.36,-0.96,-1.01,1.2,0.63
2025-12-17 14:30:58.777,-9.74,-22.85,14.23,0.31,-0.83,-0.03
2025-12-17 14:30:58.800,5.2,-9.84,2.65,6.68,-0.48,-1.87
2025-12-17 14:30:58.822,3.85,-10.88,1.87,4.72,-0.62,-0.6
2025-12-17 14:30:58.845,2.53,-8.46,1.2,3.12,-0.31,-0.17
2025-12-17 14:30:58.867,1.72,-8.75,1.93,1.77,0.48,-0.49
2025-12-17 14:30:58.891,3.13,-10.05,2.2,-0.24,1.28,0.14
2025-12-17 14:30:58.914,2.32,-9.55,1.66,-2.7,1.3,1.65
2025-12-17 14:30:58.937,1.7,-10.84,0.34,-1.84,1.6,1.18
2025-12-17 14:30:58.960,1.65,-12.1,0.11,-0.76,0.7,0.13
2025-12-17 14:30:58.983,3.02,-11.54,0.15,-0.37,0.33,-0.19
2025-12-17 14:30:59.006,2.39,-6.93,1.74,0.39,-0.31,-0.37
2025-12-17 14:30:59.029,2.63,-8.58,1.42,-0.22,-0.36,0.06
2025-12-17 14:30:59.052,2.87,-9.23,0.52,-0.52,-0.18,0.3
2025-12-17 14:30:59.075,2.35,-8.6,0.22,-0.7,-0.02,0.85
2025-12-17 14:30:59.098,1.25,-8.55,0.53,-0.57,-0.41,1.02
2025-12-17 14:30:59.122,0.37,-9.73,-0.4,-0.28,-0.59,0.86
2025-12-17 14:30:59.144,0.26,-10.44,-1.29,0.18,-0.41,0.75
2025-12-17 14:30:59.167,-0.09,-9.73,-0.46,0.71,-0.35,0.5
2025-12-17 14:30:59.190,-0.11,-8.94,0.05,0.99,-0.38,-0.11
2025-12-17 14:30:59.213,0.34,-9.26,2.04,0.87,-0.43,-0.32
2025-12-17 14:30:59.236,-0.17,-9.74,0.52,0.74,-1.09,-1.91
2025-12-17 14:30:59.259,7.09,-7.75,-0.43,0.45,-0.57,-1.99
2025-12-17 14:30:59.282,8.95,-9.42,-1.71,-0.23,0.9,-0.22
2025-12-17 14:30:59.305,5.53,-11.87,-0.01,-0.37,1.45,0.41
2025-12-17 14:30:59.328,4.19,-13.69,1.68,-1.36,2.41,0.91
2025-12-17 14:30:59.351,1.24,-14.47,4.44,-1.73,0.48,0.22
2025-12-17 14:30:59.375,1.57,-17.56,2.15,-1.78,0.2,-0.77
2025-12-17 14:30:59.397,3.51,-19.03,0.26,-1.6,0.27,-1.44
2025-12-17 14:30:59.420,1.83,-17.05,4.12,-0.75,0.37,-0.09
2025-12-17 14:30:59.443,-2.15,-21.91,0.34,-1.21,0.07,-0.99
2025-12-17 14:30:59.466,0.66,-20.64,-5.98,-0.08,0.22,-2.2
2025-12-17 14:30:59.489,1.1,-13.38,-5.0,1.91,0.14,-2.21
2025-12-17 14:30:59.512,0.81,-7.3,-3.18,3.19,-0.25,-1.74
2025-12-17 14:30:59.535,1.27,-2.51,-0.95,3.78,-0.34,-0.81
2025-12-17 14:30:59.558,-0.74,1.21,0.2,3.66,-0.3,-0.7
2025-12-17 14:30:59.581,-1.1,4.91,1.66,3.24,-0.26,-1.49
2025-12-17 14:30:59.604,2.61,11.5,4.28,2.22,-0.52,-1.66
2025-12-17 14:30:59.627,4.35,12.74,3.91,0.37,-0.19,-0.75
2025-12-17 14:30:59.650,4.42,11.07,-0.34,-0.86,-0.11,0.82
2025-12-17 14:30:59.673,3.18,10.75,-2.06,-0.98,-0.05,2.33
2025-12-17 14:30:59.696,-1.03,12.67,-0.25,-1.81,0.04,3.81
2025-12-17 14:30:59.719,-6.47,7.75,-2.88,-2.73,0.06,4.48
2025-12-17 14:30:59.743,-6.06,2.39,-7.23,-2.34,0.19,5.68
2025-12-17 14:30:59.765,-12.64,-2.26,-5.27,-2.38,0.71,5.61
2025-12-17 14:30:59.788,-13.32,-14.58,-5.32,-2.92,0.8,4.53
2025-12-17 14:30:59.811,-10.5,-25.08,-6.12,-2.12,0.36,3.97
2025-12-17 14:30:59.834,-10.87,-32.09,-2.29,-1.59,0.47,3.58
2025-12-17 14:30:59.857,-9.53,-40.15,-0.91,-0.97,0.46,1.66
2025-12-17 14:30:59.880,1.22,-39.86,0.49,0.19,0.61,2.28
2025-12-17 14:30:59.903,-5.48,-39.98,4.02,0.49,0.17,1.51
2025-12-17 14:30:59.926,-7.94,-37.7,4.87,0.01,-0.47,-0.68
2025-12-17 14:30:59.949,-4.92,-33.84,2.38,-0.45,-1.04,-2.35
2025-12-17 14:30:59.972,-4.3,-32.21,0.04,-0.27,-0.83,-2.57
2025-12-17 14:30:59.995,-12.05,-34.9,0.6,0.06,-0.68,-4.88
2025-12-17 14:31:00.018,-9.68,-32.59,-3.05,0.26,-0.77,-6.39
2025-12-17 14:31:00.042,-13.13,-28.67,-9.65,1.82,-0.26,-6.25
2025-12-17 14:31:00.065,-20.13,-12.68,-8.11,3.95,-0.04,-4.83
2025-12-17 14:31:00.088,-25.34,2.94,-4.35,4.6,-0.76,-3.34
2025-12-17 14:31:00.111,-25.37,14.28,-4.58,4.1,-2.47,-3.71
2025-12-17 14:31:00.134,-10.31,26.64,-17.37,2.19,-2.8,-6.11
2025-12-17 14:31:00.156,8.99,44.84,-15.05,3.33,-2.53,-2.43
2025-12-17 14:31:00.179,10.23,61.68,-10.65,0.82,-1.38,0.47
2025-12-17 14:31:00.202,6.15,49.76,-11.54,-3.02,-0.24,1.41
2025-12-17 14:31:00.225,3.73,30.09,-19.05,-3.91,0.33,3.64
2025-12-17 14:31:00.248,-5.2,22.81,-21.13,-3.9,1.38,6.33
2025-12-17 14:31:00.271,-26.65,16.55,-11.51,-3.43,2.14,8.44
2025-12-17 14:31:00.294,-40.17,4.19,-6.16,-4.86,1.52,7.75
2025-12-17 14:31:00.317,-34.16,-20.35,-13.08,-4.69,1.08,6.29
2025-12-17 14:31:00.340,-33.39,-48.54,-10.22,-3.27,0.27,6.0
2025-12-17 14:31:00.364,-18.96,-62.77,-10.24,-1.55,-0.16,5.28
2025-12-17 14:31:00.387,-7.77,-55.46,-7.45,-0.1,-0.04,3.31
2025-12-17 14:31:00.409,-3.53,-46.46,-6.09,1.3,0.39,2.15
2025-12-17 14:31:00.432,-0.77,-39.61,-1.55,0.97,0.33,0.49
2025-12-17 14:31:00.455,7.77,-34.79,-3.79,0.28,0.48,-0.66
2025-12-17 14:31:00.478,4.15,-34.27,-6.76,0.38,0.99,-0.94
2025-12-17 14:31:00.502,-13.57,-36.52,-4.49,2.17,0.98,-0.35
2025-12-17 14:31:00.525,-22.85,-29.44,2.75,1.16,0.44,-2.6
2025-12-17 14:31:00.547,-21.05,-22.99,-3.87,1.46,-0.26,-4.5
2025-12-17 14:31:00.571,-20.81,-21.19,-5.88,2.25,-0.61,-4.75
2025-12-17 14:31:00.593,-18.5,-11.09,-1.47,2.9,-1.2,-4.2
2025-12-17 14:31:00.616,-18.84,-1.1,-0.26,2.27,-1.37,-3.89
2025-12-17 14:31:00.639,-16.89,10.27,0.11,2.07,-2.75,-5.99
2025-12-17 14:31:00.662,-3.26,14.29,-5.32,2.85,-2.53,-4.24
2025-12-17 14:31:00.685,-4.22,24.21,-10.68,2.14,-2.07,-3.2
2025-12-17 14:31:00.708,7.64,35.14,-17.23,1.76,-1.41,-2.53
2025-12-17 14:31:00.732,10.25,45.58,-21.26,1.0,-1.0,-0.01
2025-12-17 14:31:00.755,12.34,54.78,-20.66,-0.6,-0.06,1.64
2025-12-17 14:31:00.778,17.47,59.17,-20.22,-2.25,1.65,4.61
2025-12-17 14:31:00.801,-5.02,51.37,-20.83,-4.0,3.61,8.28
2025-12-17 14:31:00.824,-39.04,24.83,-20.51,-5.58,4.86,8.63
2025-12-17 14:31:00.846,-59.81,-24.19,-17.79,-5.53,3.71,6.54
2025-12-17 14:31:00.869,-52.53,-57.94,-7.24,-4.42,1.83,5.08
2025-12-17 14:31:00.892,-40.31,-84.23,-11.72,-2.65,0.37,4.7
2025-12-17 14:31:00.915,-22.82,-75.91,-2.14,-0.25,-0.55,2.88
2025-12-17 14:31:00.938,-19.55,-69.05,-0.4,-0.43,-1.62,0.12
2025-12-17 14:31:00.961,-7.83,-69.51,-12.29,-0.14,-2.12,-3.3
2025-12-17 14:31:00.984,-7.25,-60.16,-18.35,1.22,-1.98,-5.75
2025-12-17 14:31:01.007,-2.76,-38.68,-22.03,2.73,-0.62,-5.8
2025-12-17 14:31:01.030,-23.53,-23.59,-28.27,4.59,0.31,-5.22
2025-12-17 14:31:01.053,-33.94,1.97,-15.25,4.87,0.1,-6.71
2025-12-17 14:31:01.077,-35.65,32.09,-40.99,7.18,-0.94,-6.99
2025-12-17 14:31:01.100,-3.88,102.03,-55.08,5.99,-0.05,-3.61
2025-12-17 14:31:01.122,-5.77,147.36,6.22,1.05,-0.75,1.8
2025-12-17 14:31:01.146,21.89,110.98,-17.74,-8.34,-0.47,3.88
2025-12-17 14:31:01.169,-18.04,36.86,-52.96,-8.69,1.48,8.86
2025-12-17 14:31:01.192,-50.08,-67.42,-59.79,-6.87,3.48,8.86
2025-12-17 14:31:01.215,-78.87,-140.04,-12.42,-2.73,3.41,8.65
2025-12-17 14:31:01.237,-51.09,-147.89,1.42,1.85,-1.4,0.21
2025-12-17 14:31:01.260,-15.61,-105.18,-10.89,3.49,-3.13,-5.22
2025-12-17 14:31:01.283,-15.41,-63.43,-33.32,6.04,-2.77,-8.6
2025-12-17 14:31:01.306,-15.87,-6.39,-26.91,5.88,-1.36,-8.6
2025-12-17 14:31:01.329,-16.79,36.29,-25.43,7.71,-0.49,-7.67
2025-12-17 14:31:01.352,-21.16,66.82,-38.23,5.5,-0.44,-7.16
2025-12-17 14:31:01.375,-22.88,120.45,-26.73,4.26,-0.36,-0.92
2025-12-17 14:31:01.398,-11.71,118.96,-33.76,-4.54,0.54,2.77
2025-12-17 14:31:01.422,-2.55,89.39,-51.44,-8.69,2.68,6.34
2025-12-17 14:31:01.444,-50.81,21.55,-67.79,-8.69,5.09,8.86
2025-12-17 14:31:01.467,-69.05,-86.67,-57.52,-8.69,4.87,8.86
2025-12-17 14:31:01.490,-97.55,-150.69,-13.55,-3.04,3.66,8.86
2025-12-17 14:31:01.513,-66.54,-143.83,12.3,1.01,-2.51,-1.0
2025-12-17 14:31:01.536,-9.34,-100.66,-6.21,2.51,-4.7,-7.6
2025-12-17 14:31:01.560,7.03,-65.27,-36.1,4.94,-2.36,-8.6
2025-12-17 14:31:01.583,-12.92,-22.46,-34.37,6.26,0.43,-7.05
2025-12-17 14:31:01.605,-31.99,28.04,-28.06,6.12,0.15,-6.69
2025-12-17 14:31:01.628,-50.55,71.76,-40.41,7.44,-0.68,-5.85
2025-12-17 14:31:01.652,-41.7,135.25,-28.98,1.71,-1.75,-1.79
2025-12-17 14:31:01.675,-10.44,130.42,-32.39,-4.04,-1.95,6.94
2025-12-17 14:31:01.697,-7.99,90.29,-51.46,-8.69,3.96,8.86
2025-12-17 14:31:01.720,-47.65,-0.86,-67.23,-8.69,5.22,8.86
2025-12-17 14:31:01.744,-92.2,-154.68,-54.2,-5.16,2.65,8.86
2025-12-17 14:31:01.767,-121.61,-156.91,-10.0,-0.43,0.15,2.76
2025-12-17 14:31:01.790,-18.37,-117.24,-11.0,2.83,-3.44,-8.07
2025-12-17 14:31:01.813,-16.96,-60.44,-58.65,7.79,-2.53,-8.6
2025-12-17 14:31:01.836,-43.97,21.79,-55.31,8.77,-1.87,-8.6
2025-12-17 14:31:01.859,-22.28,85.09,-52.52,8.77,-1.83,-6.7
2025-12-17 14:31:01.881,-7.58,156.9,-17.66,5.67,-0.0,-1.48
2025-12-17 14:31:01.904,5.83,156.9,-24.08,-6.6,1.77,1.61
2025-12-17 14:31:01.927,-33.78,100.07,-77.61,-8.69,3.78,8.86
2025-12-17 14:31:01.950,-69.72,10.33,-103.78,-8.69,5.17,8.86
2025-12-17 14:31:01.973,-156.91,-156.91,-130.22,-7.04,2.29,8.86
2025-12-17 14:31:01.996,-111.47,-156.91,-0.2,0.89,-2.43,-5.58
2025-12-17 14:31:02.019,0.63,-101.26,-35.98,5.19,-1.98,-8.6
2025-12-17 14:31:02.043,-14.84,-15.21,-59.69,8.77,-0.3,-8.6
2025-12-17 14:31:02.066,-43.82,60.62,-56.01,8.77,0.11,-7.13
2025-12-17 14:31:02.089,-13.6,149.98,-31.28,8.21,-0.13,-2.99
2025-12-17 14:31:02.112,28.64,156.9,12.77,2.6,2.76,-5.34
2025-12-17 14:31:02.135,-34.51,134.58,-33.1,-8.69,3.06,8.86
2025-12-17 14:31:02.158,-52.16,22.63,-75.25,-8.69,4.22,8.86
2025-12-17 14:31:02.180,-115.06,-156.91,-90.32,-8.61,0.25,8.86
2025-12-17 14:31:02.203,-144.11,-156.91,0.58,-2.52,-1.99,1.11
2025-12-17 14:31:02.226,-5.92,-115.72,-50.43,6.6,-3.82,-8.6
2025-12-17 14:31:02.249,15.77,-39.7,-66.42,6.19,-0.3,-8.6
2025-12-17 14:31:02.272,-24.18,41.67,-57.97,8.77,0.88,-3.95
2025-12-17 14:31:02.295,-16.34,116.09,-24.1,8.76,-1.09,2.5
2025-12-17 14:31:02.318,21.6,156.9,18.13,-0.44,2.54,-2.32
2025-12-17 14:31:02.341,74.9,156.9,45.43,-8.69,4.38,7.31
2025-12-17 14:31:02.364,-79.04,29.11,-70.07,-8.69,5.5,8.86
2025-12-17 14:31:02.388,-104.73,-156.91,-76.76,-8.69,1.22,8.86
2025-12-17 14:31:02.411,-109.94,-156.91,-43.74,-0.45,-4.61,-0.85
2025-12-17 14:31:02.434,12.24,-104.52,-38.81,4.7,-3.47,-8.6
2025-12-17 14:31:02.457,22.27,-28.51,-79.8,8.25,1.26,-8.6
2025-12-17 14:31:02.480,-42.09,66.58,-47.82,8.77,0.69,-5.02
2025-12-17 14:31:02.503,-11.07,140.77,-17.97,7.71,-0.07,-1.41
2025-12-17 14:31:02.526,9.63,156.9,28.12,-2.6,1.66,2.35
2025-12-17 14:31:02.548,-25.71,115.64,-55.04,-8.69,3.9,7.45
2025-12-17 14:31:02.571,-46.86,-20.1,-66.47,-8.69,2.64,8.86
2025-12-17 14:31:02.595,-119.67,-156.91,-80.9,-6.75,-2.16,8.86
2025-12-17 14:31:02.618,-54.56,-156.91,-37.74,0.21,-4.14,-6.8
2025-12-17 14:31:02.641,18.16,-88.84,-58.39,4.83,-0.44,-8.6
2025-12-17 14:31:02.663,-6.5,8.86,-88.5,8.77,1.71,-8.6
2025-12-17 14:31:02.687,-21.64,102.79,-45.3,8.77,-1.72,0.44
2025-12-17 14:31:02.710,14.2,156.9,4.36,5.47,2.02,-2.58
2025-12-17 14:31:02.733,11.03,156.9,-8.17,-8.69,3.96,7.77
2025-12-17 14:31:02.756,-69.42,76.39,-66.42,-8.69,8.17,7.85
2025-12-17 14:31:02.779,-156.91,-156.91,-129.32,-8.69,1.88,8.86
2025-12-17 14:31:02.801,-106.89,-156.91,-41.48,-1.66,-4.15,-1.75
2025-12-17 14:31:02.824,35.15,-96.21,-48.2,4.65,-4.28,-8.6
2025-12-17 14:31:02.847,-7.56,-14.07,-115.04,8.77,2.52,-8.6
2025-12-17 14:31:02.870,-45.23,93.4,-51.59,8.77,0.5,-1.23
2025-12-17 14:31:02.893,0.7,156.9,-3.71,8.06,3.22,-0.79
2025-12-17 14:31:02.916,17.34,156.9,16.68,-8.24,2.53,5.4
2025-12-17 14:31:02.939,-41.17,87.94,-57.48,-8.69,5.26,8.04
2025-12-17 14:31:02.963,-131.88,-156.91,-156.91,-8.69,0.54,8.48
2025-12-17 14:31:02.986,-77.46,-156.91,-71.85,-1.1,-2.7,1.02
2025-12-17 14:31:03.009,13.41,-115.3,-51.15,5.94,-1.51,-7.79
2025-12-17 14:31:03.032,-13.99,-17.38,-76.37,8.77,0.71,-8.6
2025-12-17 14:31:03.055,-43.88,100.34,-77.83,8.77,-1.01,-7.44
2025-12-17 14:31:03.078,23.13,156.9,-23.61,8.77,-0.07,-0.12
2025-12-17 14:31:03.100,13.97,156.9,15.25,-8.69,4.36,7.84
2025-12-17 14:31:03.123,-60.65,66.19,-58.4,-8.69,6.8,3.86
2025-12-17 14:31:03.147,-90.63,-156.91,-134.97,-8.69,-3.77,8.86
2025-12-17 14:31:03.170,-61.26,-156.91,-46.95,2.38,-3.4,-1.72
2025-12-17 14:31:03.193,14.81,-71.51,-53.28,7.12,-1.09,-8.6
2025-12-17 14:31:03.216,-20.52,15.28,-141.87,8.77,0.05,-8.6
2025-12-17 14:31:03.239,-18.1,156.9,-47.36,8.77,-0.49,-4.11
2025-12-17 14:31:03.262,51.57,156.9,41.98,-1.57,6.98,5.82
2025-12-17 14:31:03.285,-56.3,143.71,-60.78,-8.69,8.64,8.86
2025-12-17 14:31:03.308,-133.71,-23.33,-70.35,-8.69,4.41,6.79
2025-12-17 14:31:03.331,-73.34,-156.91,-75.24,-3.02,-5.56,1.41
2025-12-17 14:31:03.353,24.49,-145.19,-48.88,6.37,-3.43,-8.6
2025-12-17 14:31:03.376,5.91,-41.07,-89.85,8.77,2.29,-8.6
2025-12-17 14:31:03.399,-37.13,107.9,-90.8,8.77,1.68,-5.38
2025-12-17 14:31:03.422,9.64,156.9,38.58,6.83,1.36,2.23
2025-12-17 14:31:03.445,-17.12,156.9,5.05,-8.69,4.59,6.54
2025-12-17 14:31:03.468,-75.8,12.6,-71.4,-8.69,3.27,5.73
2025-12-17 14:31:03.492,-100.48,-156.91,-102.78,-8.69,-4.7,3.51
2025-12-17 14:31:03.515,46.47,-156.91,-43.1,5.17,-3.74,-5.67
2025-12-17 14:31:03.537,9.07,-55.94,-79.01,8.77,1.18,-8.6
2025-12-17 14:31:03.561,-53.44,57.33,-113.66,8.77,2.12,-8.6
2025-12-17 14:31:03.583,-5.54,156.9,-2.77,8.77,2.54,-0.86
2025-12-17 14:31:03.607,-20.89,156.9,21.28,-8.69,5.24,8.15
2025-12-17 14:31:03.630,-88.3,57.33,-76.32,-8.69,4.1,8.58
2025-12-17 14:31:03.653,-98.46,-156.91,-105.07,-8.69,-3.04,6.86
2025-12-17 14:31:03.676,4.5,-156.91,-61.98,2.23,-4.85,-4.33
2025-12-17 14:31:03.698,54.63,-29.54,3.91,6.5,-0.13,-5.71
2025-12-17 14:31:03.721,21.49,55.26,-31.87,7.88,2.76,-2.21
2025-12-17 14:31:03.744,-9.95,85.87,17.59,3.37,1.41,-1.6
2025-12-17 14:31:03.767,-4.38,51.41,15.65,-2.59,0.04,0.48
2025-12-17 14:31:03.790,-2.45,9.61,-4.86,-3.07,0.29,1.73
2025-12-17 14:31:03.813,-9.2,-17.85,-8.77,-2.78,1.08,3.1
2025-12-17 14:31:03.836,-10.35,-26.81,-5.56,-2.62,0.37,3.65
2025-12-17 14:31:03.859,-8.8,-31.34,-9.79,-0.25,-1.09,1.93
2025-12-17 14:31:03.882,-2.29,-23.16,-3.64,0.7,-2.04,-0.01
2025-12-17 14:31:03.905,10.97,-16.11,-4.53,0.49,-1.8,-1.58
2025-12-17 14:31:03.929,11.26,-12.28,-2.38,-0.08,-0.82,-0.73
2025-12-17 14:31:03.952,7.24,-11.9,-2.78,-0.18,-0.37,-0.35
2025-12-17 14:31:03.975,4.4,-11.34,-1.98,-0.01,0.41,-0.62
2025-12-17 14:31:03.997,2.73,-10.21,-3.58,0.32,0.12,-0.77
2025-12-17 14:31:04.021,3.94,-8.41,-1.0,0.79,-0.23,-0.35
2025-12-17 14:31:04.043,3.84,-8.02,-0.42,1.09,-0.48,0.91
2025-12-17 14:31:04.066,2.73,-7.81,0.47,0.72,-0.78,1.73
2025-12-17 14:31:04.089,0.66,-7.53,2.33,0.03,-1.03,2.0
2025-12-17 14:31:04.113,-1.41,-10.65,2.71,-1.35,-2.77,0.91
2025-12-17 14:31:04.136,7.42,-3.39,-13.25,-3.23,-1.52,0.94
2025-12-17 14:31:04.158,0.34,-9.66,-0.6,0.03,-0.71,0.69
2025-12-17 14:31:04.181,-3.73,-7.52,-2.42,0.86,-4.38,-1.15
2025-12-17 14:31:04.204,-0.74,-8.85,-1.09,2.73,-5.17,-0.73
2025-12-17 14:31:04.227,-2.64,-10.59,-2.72,2.49,-8.82,-2.23
2025-12-17 14:31:04.251,3.75,-6.09,-1.9,2.51,-8.78,-3.33
2025-12-17 14:31:04.273,29.46,-0.28,4.3,0.69,3.38,1.9
2025-12-17 14:31:04.296,-0.97,-12.65,13.83,-3.41,-0.56,7.28
2025-12-17 14:31:04.319,-11.11,-19.87,-3.99,-3.79,-3.06,2.82
2025-12-17 14:31:04.342,0.67,-15.9,-3.95,-1.56,-3.0,0.6
2025-12-17 14:31:04.365,-5.99,-27.96,-4.82,-1.84,0.79,0.44
2025-12-17 14:31:04.389,-19.78,-33.55,-6.24,-4.04,-0.5,-1.14
2025-12-17 14:31:04.412,-20.37,-12.45,-9.52,-2.39,-2.76,-4.78
2025-12-17 14:31:04.434,-9.82,3.19,-9.74,0.62,-3.5,-7.55
2025-12-17 14:31:04.457,3.62,22.9,1.05,-1.39,1.12,-7.41
2025-12-17 14:31:04.480,1.77,35.66,-5.79,-0.9,5.92,-6.87
2025-12-17 14:31:04.503,23.89,76.01,38.23,3.41,0.2,-6.07
2025-12-17 14:31:04.526,27.16,77.45,26.57,-1.62,-7.04,8.86
2025-12-17 14:31:04.550,-59.14,0.9,-12.3,0.62,-8.82,8.86
2025-12-17 14:31:04.573,-100.3,-156.91,-68.64,-2.8,1.61,6.31
2025-12-17 14:31:04.596,-35.79,-101.89,-23.37,0.12,2.05,-8.6
2025-12-17 14:31:04.619,-23.81,-17.42,-25.58,-6.53,6.04,-8.6
2025-12-17 14:31:04.641,-48.48,40.14,-21.79,1.7,8.64,-8.6
2025-12-17 14:31:04.664,4.94,153.85,25.18,8.43,8.29,-5.67
2025-12-17 14:31:04.687,40.46,141.44,62.23,-2.33,-1.0,8.86
2025-12-17 14:31:04.710,-61.12,44.56,37.45,-0.37,-2.0,8.86
2025-12-17 14:31:04.733,-86.44,-98.08,-12.01,-3.15,-2.97,8.86
2025-12-17 14:31:04.757,-60.62,-156.91,-28.36,7.63,-1.22,-6.12
2025-12-17 14:31:04.780,-14.04,-51.53,10.36,-8.31,-1.76,-8.6
2025-12-17 14:31:04.802,-46.9,20.64,-47.05,-7.14,3.57,-8.6
2025-12-17 14:31:04.825,-23.78,97.09,-27.2,5.88,3.12,-8.6
2025-12-17 14:31:04.848,30.27,147.95,53.01,4.28,2.3,5.19
2025-12-17 14:31:04.872,-21.68,92.69,63.6,-3.33,-1.43,8.86
2025-12-17 14:31:04.895,-55.73,-10.33,7.23,-5.9,-3.9,8.86
2025-12-17 14:31:04.918,-108.07,-156.91,-81.82,7.13,-2.29,-0.19
2025-12-17 14:31:04.941,-13.72,-75.23,10.4,-6.23,-0.33,-8.6
2025-12-17 14:31:04.964,-36.97,-9.22,-67.64,-7.3,6.45,-8.6
2025-12-17 14:31:04.987,-32.5,92.38,14.87,7.16,5.58,-8.6
2025-12-17 14:31:05.010,22.85,143.54,78.38,-0.74,-0.08,3.58
2025-12-17 14:31:05.032,-29.29,87.59,49.49,-2.87,-5.26,8.86
2025-12-17 14:31:05.055,-48.52,-37.76,-33.93,-4.43,-7.43,8.86
2025-12-17 14:31:05.078,-62.49,-156.91,-65.72,8.75,-2.06,-2.65
2025-12-17 14:31:05.101,-7.1,-50.13,-0.18,-8.52,0.57,-8.6
2025-12-17 14:31:05.125,-43.44,-2.12,-70.52,-3.74,7.1,-8.6
2025-12-17 14:31:05.147,2.69,120.76,55.99,7.36,3.49,-8.6
2025-12-17 14:31:05.170,20.74,148.71,68.61,-0.89,-2.77,6.88
2025-12-17 14:31:05.193,-49.81,70.7,43.01,-1.83,-6.41,8.86
2025-12-17 14:31:05.217,-77.78,-94.2,-57.91,-3.44,-7.34,8.86
2025-12-17 14:31:05.240,-44.07,-156.91,-55.57,3.62,-0.55,-4.19
2025-12-17 14:31:05.263,1.83,-37.63,-38.48,-7.67,4.08,-8.6
2025-12-17 14:31:05.286,-63.47,-10.68,-50.1,1.29,8.39,-8.6
2025-12-17 14:31:05.309,17.97,143.5,70.27,7.99,2.56,-8.6
2025-12-17 14:31:05.332,20.15,155.95,63.88,0.12,-3.96,8.09
2025-12-17 14:31:05.355,-64.89,70.77,49.3,-1.67,-6.24,8.86
2025-12-17 14:31:05.378,-92.48,-86.0,-76.98,-4.89,-7.21,8.86
2025-12-17 14:31:05.400,-41.55,-156.91,-66.76,5.54,0.66,-3.14
2025-12-17 14:31:05.423,-3.5,-50.8,-9.14,-6.16,3.26,-8.6
2025-12-17 14:31:05.446,-62.01,-6.26,-39.58,-0.28,7.61,-8.6
2025-12-17 14:31:05.469,-15.14,116.24,58.97,4.45,2.57,-8.6
2025-12-17 14:31:05.492,25.88,151.71,50.27,0.98,-3.84,4.72
2025-12-17 14:31:05.515,-36.97,71.82,25.62,-0.11,-5.16,8.86
2025-12-17 14:31:05.539,-64.88,-48.01,-24.18,-1.93,-4.35,8.86
2025-12-17 14:31:05.562,-53.58,-156.91,-61.49,3.21,-1.12,1.59
2025-12-17 14:31:05.584,-8.26,-60.99,-12.87,2.18,1.95,-6.78
2025-12-17 14:31:05.607,-7.18,-1.62,-11.44,-0.61,2.5,-6.5
2025-12-17 14:31:05.630,-3.44,25.42,-3.58,0.71,2.07,-5.47
2025-12-17 14:31:05.653,7.77,32.63,-0.47,0.87,1.34,-2.25
2025-12-17 14:31:05.676,7.63,23.03,1.34,0.76,0.93,1.01
2025-12-17 14:31:05.699,3.79,9.69,2.5,0.14,0.47,2.71
2025-12-17 14:31:05.723,-0.07,-3.08,1.66,-0.26,-0.01,3.84
2025-12-17 14:31:05.746,-5.69,-16.79,-4.99,-0.59,0.04,3.69
2025-12-17 14:31:05.768,-4.71,-25.54,-7.75,-0.11,0.03,2.52
2025-12-17 14:31:05.791,-3.69,-22.44,-7.49,0.57,0.23,1.25
2025-12-17 14:31:05.814,1.8,-14.64,-5.04,0.32,0.2,0.4
2025-12-17 14:31:05.837,1.72,-11.64,-6.34,0.06,1.04,0.11
2025-12-17 14:31:05.860,1.97,-8.63,-4.79,0.06,1.4,-0.05
2025-12-17 14:31:05.883,1.26,-8.22,-3.94,0.62,0.38,-0.17
2025-12-17 14:31:05.906,3.03,-6.87,-5.35,1.86,-0.07,0.05
2025-12-17 14:31:05.929,2.9,-6.65,-3.45,1.66,-0.19,0.28
2025-12-17 14:31:05.952,2.9,-7.89,-5.2,0.91,0.37,0.9
2025-12-17 14:31:05.975,0.72,-9.67,-4.53,0.37,0.66,1.14
2025-12-17 14:31:05.998,-0.38,-10.62,-4.2,0.09,0.5,1.04
2025-12-17 14:31:06.022,0.57,-10.6,-3.85,-0.1,0.59,0.92
2025-12-17 14:31:06.045,0.15,-11.24,-3.75,-0.18,0.67,0.82
2025-12-17 14:31:06.068,0.51,-12.14,-4.52,-0.23,0.74,0.34
2025-12-17 14:31:06.091,0.45,-11.65,-3.9,0.01,0.98,0.07
2025-12-17 14:31:06.114,1.34,-10.04,-2.24,0.12,0.78,0.16
2025-12-17 14:31:06.136,0.26,-10.81,-3.17,-0.06,0.5,0.33
2025-12-17 14:31:06.159,2.17,-10.56,-6.06,0.76,0.66,0.35
2025-12-17 14:31:06.182,2.09,-9.16,-1.89,0.94,1.01,0.45
2025-12-17 14:31:06.205,0.03,-10.07,-1.58,0.7,0.52,0.51
2025-12-17 14:31:06.228,-1.75,-10.72,0.33,0.16,-0.0,-0.05
2025-12-17 14:31:06.251,0.6,-10.45,0.65,-1.02,-0.48,-0.82
2025-12-17 14:31:06.274,3.84,-10.02,-1.89,-1.98,-0.93,-0.89
2025-12-17 14:31:06.297,3.35,-12.97,-8.37,-1.8,-1.1,-0.38
2025-12-17 14:31:06.321,0.26,-15.01,-8.56,-0.66,-0.22,-0.4
2025-12-17 14:31:06.344,-1.63,-14.19,-7.13,-0.7,0.0,-1.14
2025-12-17 14:31:06.367,-0.57,-9.09,-8.75,-0.2,0.29,-1.51
2025-12-17 14:31:06.389,1.54,-1.96,-6.72,1.53,0.34,-1.34
2025-12-17 14:31:06.412,3.32,2.12,-1.18,3.29,0.37,-0.54
2025-12-17 14:31:06.435,4.98,4.7,7.37,3.75,-0.86,0.53
2025-12-17 14:31:06.458,5.71,2.51,9.37,0.44,-1.55,1.81
2025-12-17 14:31:06.481,2.64,-6.23,1.43,-3.0,-1.64,2.44
2025-12-17 14:31:06.505,-6.95,-25.11,-10.78,-3.19,-1.29,3.37
2025-12-17 14:31:06.527,-12.97,-34.74,-11.79,-1.94,0.36,-0.07
2025-12-17 14:31:06.550,-4.54,-19.46,-10.0,0.84,-0.12,-3.08
2025-12-17 14:31:06.573,1.56,-2.2,-3.62,2.45,-1.09,-3.12
2025-12-17 14:31:06.596,10.99,10.39,-5.78,0.95,-0.77,-1.68
2025-12-17 14:31:06.619,11.96,13.65,-4.44,1.3,0.32,0.68
2025-12-17 14:31:06.642,7.47,4.46,2.48,-0.43,0.87,3.15
2025-12-17 14:31:06.665,-13.59,-26.1,-5.97,-1.43,0.92,4.55
2025-12-17 14:31:06.689,-18.71,-49.42,-6.41,-0.94,1.28,-1.18
2025-12-17 14:31:06.711,-8.29,-24.87,0.58,0.94,0.2,-3.83
2025-12-17 14:31:06.734,-0.82,-2.01,4.06,-0.6,-0.63,-5.2
2025-12-17 14:31:06.757,11.45,17.79,-9.45,-1.6,-0.99,-5.06
2025-12-17 14:31:06.781,20.03,28.69,-11.08,0.8,-0.3,-0.38
2025-12-17 14:31:06.803,12.01,20.0,-0.63,1.02,-0.45,4.33
2025-12-17 14:31:06.826,-6.55,-4.78,-0.55,0.51,-1.43,6.93
2025-12-17 14:31:06.850,-23.94,-44.05,-0.75,-1.4,-2.45,3.39
2025-12-17 14:31:06.872,-4.35,-37.97,0.37,-0.05,-2.51,-1.01
2025-12-17 14:31:06.896,0.1,-23.99,-2.86,-1.01,-1.51,-2.24
2025-12-17 14:31:06.918,5.0,-8.03,-7.38,-1.49,-0.58,-3.08
2025-12-17 14:31:06.942,3.51,-0.83,-8.29,-0.55,-0.51,-2.08
2025-12-17 14:31:06.964,6.19,5.28,-11.07,0.12,-0.08,-1.36
2025-12-17 14:31:06.987,6.2,6.92,-8.0,1.2,0.01,0.19
2025-12-17 14:31:07.010,5.88,5.7,-3.82,1.35,0.0,1.66
2025-12-17 14:31:07.033,0.59,-7.14,-4.64,0.29,0.61,2.88
2025-12-17 14:31:07.057,-3.04,-21.0,-5.28,0.64,0.82,2.61
2025-12-17 14:31:07.079,-4.82,-26.7,-0.47,0.89,0.97,1.01
2025-12-17 14:31:07.102,-2.02,-19.87,2.73,-0.23,0.43,-0.77
2025-12-17 14:31:07.125,1.2,-9.87,-0.77,-1.15,-0.11,-1.59
2025-12-17 14:31:07.148,4.65,-2.38,-4.2,-1.44,-0.41,-1.1
2025-12-17 14:31:07.171,4.43,-0.13,-7.61,-0.86,-0.38,0.1
2025-12-17 14:31:07.194,2.7,-0.68,-7.05,0.19,-0.29,0.76
2025-12-17 14:31:07.217,2.3,-3.96,-5.75,1.2,-0.32,1.35
2025-12-17 14:31:07.241,0.17,-10.21,-1.31,0.84,-0.07,1.75
2025-12-17 14:31:07.264,-0.88,-14.31,-2.74,0.12,-0.2,1.12
2025-12-17 14:31:07.287,0.66,-14.31,-5.36,0.07,-0.29,0.49
2025-12-17 14:31:07.310,1.71,-13.79,-6.97,0.37,-0.13,0.22
2025-12-17 14:31:07.332,2.86,-13.6,-4.94,0.43,0.04,0.21
2025-12-17 14:31:07.355,2.53,-18.89,-5.95,0.02,0.44,0.53
2025-12-17 14:31:07.378,-2.03,-31.23,-7.13,-0.01,1.75,0.55
2025-12-17 14:31:07.401,-10.49,-33.29,-3.3,0.45,2.1,-2.07
2025-12-17 14:31:07.424,-10.62,-17.81,4.18,-0.03,1.23,-5.01
2025-12-17 14:31:07.447,-6.46,0.53,1.5,-1.14,0.11,-5.97
2025-12-17 14:31:07.470,-2.0,11.51,-3.0,-0.94,-0.16,-5.21
2025-12-17 14:31:07.493,1.41,17.77,-5.47,0.13,-0.33,-4.01
2025-12-17 14:31:07.516,5.27,24.38,-4.24,1.06,-1.0,-2.67
2025-12-17 14:31:07.539,18.69,33.87,-4.85,1.25,-1.07,1.33
2025-12-17 14:31:07.562,3.52,25.01,-1.02,0.56,-0.91,7.73
2025-12-17 14:31:07.586,-10.36,9.09,-4.76,-0.1,-1.49,8.86
2025-12-17 14:31:07.609,-14.73,-12.54,-13.22,0.54,0.21,8.48
2025-12-17 14:31:07.632,-16.19,-29.11,-2.43,1.58,1.1,7.15
2025-12-17 14:31:07.655,-22.18,-45.63,4.79,-0.07,1.37,4.23
2025-12-17 14:31:07.678,-11.75,-44.87,-2.42,-0.99,0.67,0.36
2025-12-17 14:31:07.701,-5.07,-34.86,-4.08,0.19,-0.18,-1.32
2025-12-17 14:31:07.724,-2.75,-26.54,-2.83,-0.37,-0.06,-2.56
2025-12-17 14:31:07.747,-2.46,-25.04,-5.08,-0.83,0.23,-3.08
2025-12-17 14:31:07.770,-8.52,-25.04,-7.46,0.76,0.19,-3.33
2025-12-17 14:31:07.793,-10.04,-12.8,0.42,1.03,-0.43,-5.21
2025-12-17 14:31:07.816,-7.26,-0.96,0.15,0.4,-1.13,-5.72
2025-12-17 14:31:07.839,-5.36,6.86,-3.97,1.16,-2.11,-5.44
2025-12-17 14:31:07.861,-1.24,12.68,-8.4,1.66,-2.12,-5.17
2025-12-17 14:31:07.884,3.32,17.11,-9.52,1.92,-0.92,-3.94
2025-12-17 14:31:07.907,7.69,19.28,-6.24,1.88,-0.17,-1.89
2025-12-17 14:31:07.930,11.52,20.18,-3.16,1.96,-0.46,2.28
2025-12-17 14:31:07.953,2.94,13.64,-1.62,1.52,-0.66,5.09
2025-12-17 14:31:07.976,-3.44,9.01,0.81,0.79,-0.97,6.48
2025-12-17 14:31:07.999,-8.32,-0.04,-1.53,-1.31,-0.43,6.28
2025-12-17 14:31:08.022,-7.13,-12.13,-10.14,-1.91,0.64,6.61
2025-12-17 14:31:08.045,-17.49,-36.33,-19.58,1.09,1.78,5.6
2025-12-17 14:31:08.068,-8.94,-36.97,-3.28,4.9,3.56,3.83
2025-12-17 14:31:08.091,-15.09,-45.95,16.42,1.74,3.46,2.53
2025-12-17 14:31:08.115,-14.67,-43.13,9.71,0.29,0.78,-1.16
2025-12-17 14:31:08.138,-8.93,-32.43,5.49,0.33,-0.54,-3.52
2025-12-17 14:31:08.161,-11.54,-23.22,6.56,-0.96,-0.47,-5.1
2025-12-17 14:31:08.184,-11.51,-10.66,3.65,-2.22,-0.83,-6.98
2025-12-17 14:31:08.206,-8.72,1.38,-0.04,-2.51,-1.26,-7.63
2025-12-17 14:31:08.230,-1.68,10.43,-4.96,-2.19,-1.27,-6.91
2025-12-17 14:31:08.253,4.81,14.67,-10.07,-0.88,-0.54,-4.62
2025-12-17 14:31:08.276,5.43,15.02,-9.52,-0.19,0.54,-2.75
2025-12-17 14:31:08.299,6.85,15.14,-5.82,0.7,0.45,-1.49
2025-12-17 14:31:08.322,9.84,15.07,-1.92,0.75,0.25,0.63
2025-12-17 14:31:08.345,7.18,11.08,-0.82,0.28,-0.18,2.75
2025-12-17 14:31:08.367,3.11,7.99,-0.07,-0.15,-0.43,3.88
2025-12-17 14:31:08.390,-0.44,3.61,-2.96,-0.49,-0.52,4.52
2025-12-17 14:31:08.413,-4.16,-2.35,-2.98,-1.1,-0.24,4.52
2025-12-17 14:31:08.436,-3.95,-10.57,-8.31,-0.22,0.47,4.73
2025-12-17 14:31:08.459,-2.11,-14.43,-3.17,1.93,0.54,4.61
2025-12-17 14:31:08.482,-5.81,-21.12,9.74,0.78,0.46,4.96
2025-12-17 14:31:08.505,-7.22,-25.67,2.86,-1.93,-0.69,3.69
2025-12-17 14:31:08.528,-6.33,-27.04,-7.33,-0.17,-2.07,2.28
2025-12-17 14:31:08.552,-3.18,-25.35,-9.26,1.19,-1.67,1.23
2025-12-17 14:31:08.575,-0.99,-22.3,-3.96,0.59,-0.63,0.4
2025-12-17 14:31:08.597,-0.73,-22.35,-6.57,-0.85,-0.45,0.03
2025-12-17 14:31:08.620,-0.42,-23.32,-7.88,-0.77,-0.51,-0.92
2025-12-17 14:31:08.643,-3.98,-23.93,-8.53,0.23,-0.12,-1.27
2025-12-17 14:31:08.666,-3.6,-20.1,-4.79,0.96,-0.0,-2.17
2025-12-17 14:31:08.689,-3.36,-14.75,-1.87,1.24,-0.18,-2.26
2025-12-17 14:31:08.712,-5.97,-9.51,2.83,0.29,-0.26,-3.19
2025-12-17 14:31:08.735,-3.81,-3.5,1.31,-1.11,-0.35,-4.2
2025-12-17 14:31:08.758,-1.26,0.87,-1.36,-1.33,-0.4,-4.17
2025-12-17 14:31:08.781,0.2,2.84,-2.54,-0.59,-0.7,-3.59
2025-12-17 14:31:08.804,1.67,4.28,-3.29,0.34,-0.95,-2.88
2025-12-17 14:31:08.827,2.95,5.15,-3.89,1.1,-1.08,-2.27
2025-12-17 14:31:08.850,5.0,7.05,-3.08,0.97,-0.88,-1.5
2025-12-17 14:31:08.873,6.04,7.32,-4.12,1.07,-0.4,0.11
2025-12-17 14:31:08.896,4.41,6.1,-2.57,1.23,-0.14,1.54
2025-12-17 14:31:08.919,2.18,4.1,-1.88,0.9,0.09,2.41
2025-12-17 14:31:08.942,1.46,2.29,-2.41,0.49,0.23,3.0
2025-12-17 14:31:08.965,0.73,-0.57,-4.66,0.89,0.4,3.7
2025-12-17 14:31:08.988,-2.69,-6.85,-4.86,2.28,0.72,4.23
2025-12-17 14:31:09.011,-5.83,-13.97,2.25,3.24,1.93,4.0
2025-12-17 14:31:09.034,-3.13,-16.11,13.09,0.78,1.97,3.77
2025-12-17 14:31:09.057,-4.73,-23.49,7.13,-0.58,0.54,3.13
2025-12-17 14:31:09.080,-5.27,-29.63,1.51,0.21,-0.81,1.97
2025-12-17 14:31:09.104,-1.55,-29.39,1.0,0.46,-0.85,0.9
2025-12-17 14:31:09.126,-0.67,-28.02,0.13,-0.42,-0.78,-0.12
2025-12-17 14:31:09.149,0.07,-24.24,-1.59,-0.59,-1.0,-0.62
2025-12-17 14:31:09.172,-1.14,-22.53,-0.61,-1.11,-0.96,-0.92
2025-12-17 14:31:09.195,-3.32,-20.14,0.63,-1.9,-0.68,-1.52
2025-12-17 14:31:09.218,-1.84,-14.61,-1.44,-1.97,-0.47,-1.63
2025-12-17 14:31:09.242,-3.24,-12.62,-1.61,-1.6,-0.72,-2.01
2025-12-17 14:31:09.264,-4.63,-10.46,1.41,-2.39,-0.47,-2.72
2025-12-17 14:31:09.288,-0.6,-6.81,-6.11,-1.85,-0.49,-2.44
2025-12-17 14:31:09.311,-0.89,-3.77,-2.18,-1.57,-0.35,-3.26
2025-12-17 14:31:09.334,2.48,-0.03,-3.82,-1.49,0.02,-2.81
2025-12-17 14:31:09.357,2.98,1.36,-3.58,-0.8,0.04,-2.13
2025-12-17 14:31:09.379,9.26,8.66,6.11,-3.31,0.06,-1.09
2025-12-17 14:31:09.403,2.04,3.5,-4.96,1.25,-0.43,-0.87
2025-12-17 14:31:09.426,4.76,5.39,-2.29,1.44,-0.51,-0.09
2025-12-17 14:31:09.449,3.43,5.49,-5.29,2.26,-0.29,0.44
2025-12-17 14:31:09.471,3.38,6.36,-0.79,2.68,0.43,1.15
2025-12-17 14:31:09.494,4.18,7.02,3.31,1.41,0.74,2.15
2025-12-17 14:31:09.517,1.57,4.68,1.86,0.18,0.53,3.29
2025-12-17 14:31:09.540,-4.81,-0.82,-1.57,0.45,0.16,3.47
2025-12-17 14:31:09.563,-3.41,-1.89,-1.17,1.87,0.56,3.25
2025-12-17 14:31:09.586,-2.43,-0.53,5.82,1.94,0.65,4.13
2025-12-17 14:31:09.609,-5.07,-2.56,8.93,1.43,-0.4,5.42
2025-12-17 14:31:09.632,-11.94,-6.51,6.68,0.38,-0.93,5.26
2025-12-17 14:31:09.656,-9.1,-12.43,-5.17,0.13,-1.06,4.57
2025-12-17 14:31:09.679,-16.22,-27.05,5.32,0.37,-0.85,5.34
2025-12-17 14:31:09.702,-17.15,-39.23,-6.13,-2.77,-1.88,3.3
2025-12-17 14:31:09.725,-12.75,-48.42,-23.25,0.36,-0.72,1.29
2025-12-17 14:31:09.748,-14.31,-43.84,-3.95,1.61,0.85,-1.3
2025-12-17 14:31:09.770,-10.46,-36.13,5.01,0.08,0.93,-2.59
2025-12-17 14:31:09.794,-14.15,-32.85,3.98,-0.33,0.42,-3.92
2025-12-17 14:31:09.817,-12.87,-21.77,3.14,0.1,-0.04,-5.02
2025-12-17 14:31:09.840,-12.02,-9.38,5.72,-0.63,-0.25,-5.68
2025-12-17 14:31:09.863,-9.34,-0.84,2.83,-1.61,-0.48,-5.73
2025-12-17 14:31:09.886,-7.81,4.52,-1.13,-1.7,-0.69,-5.51
2025-12-17 14:31:09.909,-5.56,9.8,-4.24,-0.79,-0.55,-5.2
2025-12-17 14:31:09.931,-1.03,16.17,-4.8,0.59,-0.33,-4.12
2025-12-17 14:31:09.954,1.6,21.94,-1.26,1.11,-0.46,-2.49
2025-12-17 14:31:09.977,4.58,29.65,-0.88,1.11,-0.99,-0.6
2025-12-17 14:31:10.000,10.49,36.95,-1.39,0.31,-1.3,3.14
2025-12-17 14:31:10.024,-0.36,31.89,-3.29,-0.4,-1.14,7.34
2025-12-17 14:31:10.046,-22.72,8.31,-7.75,-0.88,-1.12,7.92
2025-12-17 14:31:10.070,-21.72,-26.28,-17.31,3.1,0.53,6.87
2025-12-17 14:31:10.093,-16.75,-47.51,20.83,6.01,1.27,5.35
2025-12-17 14:31:10.116,-17.55,-65.49,37.67,0.44,-0.25,2.22
2025-12-17 14:31:10.139,-6.94,-56.83,7.12,-0.32,-2.51,-0.77
2025-12-17 14:31:10.162,-2.68,-38.89,-2.0,-1.66,-2.05,-2.52
2025-12-17 14:31:10.184,-7.53,-31.35,-7.39,-3.35,-1.08,-3.82
2025-12-17 14:31:10.207,-8.71,-16.21,-2.84,-4.31,-0.4,-5.0
2025-12-17 14:31:10.230,-8.1,-6.25,-5.83,-1.29,0.03,-5.08
2025-12-17 14:31:10.253,-4.57,4.07,0.32,-1.19,0.34,-5.16
2025-12-17 14:31:10.276,-1.52,11.85,0.29,-0.83,0.29,-4.07
2025-12-17 14:31:10.299,0.61,17.68,-0.98,-0.33,0.35,-2.71
2025-12-17 14:31:10.322,5.27,24.66,0.92,0.3,0.24,-1.08
2025-12-17 14:31:10.345,6.75,27.03,4.82,0.12,-0.29,1.69
2025-12-17 14:31:10.368,-0.56,19.6,2.27,-0.66,-0.77,4.18
2025-12-17 14:31:10.391,-6.41,10.52,-5.45,0.08,-0.64,5.03
2025-12-17 14:31:10.414,-7.78,6.15,-3.71,2.62,-0.26,5.85
2025-12-17 14:31:10.438,-11.98,-3.01,3.61,4.29,-0.22,7.12
2025-12-17 14:31:10.461,-15.47,-15.58,14.47,2.31,0.19,6.69
2025-12-17 14:31:10.484,-14.97,-29.76,6.36,1.43,-1.19,5.53
2025-12-17 14:31:10.506,-18.17,-42.93,3.99,1.76,-1.23,3.34
2025-12-17 14:31:10.529,-9.94,-40.89,5.67,0.21,-0.66,1.25
2025-12-17 14:31:10.552,-11.19,-40.83,0.44,-1.44,-0.89,0.22
2025-12-17 14:31:10.575,-10.02,-34.88,-6.03,-2.27,-0.54,-1.41
2025-12-17 14:31:10.598,-10.69,-28.85,-5.21,-2.08,0.38,-2.87
2025-12-17 14:31:10.621,-10.73,-21.92,0.67,-2.03,0.83,-4.45
2025-12-17 14:31:10.644,-8.31,-13.03,2.45,-2.14,0.89,-5.45
2025-12-17 14:31:10.667,-8.63,-7.69,1.18,-1.72,0.72,-5.68
2025-12-17 14:31:10.690,-6.49,-0.95,1.25,-1.37,0.5,-5.94
2025-12-17 14:31:10.713,-4.04,3.83,0.72,-0.64,0.38,-5.2
2025-12-17 14:31:10.736,-2.18,6.88,-1.09,0.01,0.08,-4.19
2025-12-17 14:31:10.759,2.91,14.26,-7.06,-4.81,1.22,-2.94
2025-12-17 14:31:10.782,5.35,22.06,5.15,0.25,0.04,-0.94
2025-12-17 14:31:10.805,8.13,18.94,-0.87,0.35,-0.99,1.35
2025-12-17 14:31:10.828,3.49,12.96,-2.37,1.24,-1.25,3.54
2025-12-17 14:31:10.851,-3.28,6.67,-2.64,0.74,-0.17,4.11
2025-12-17 14:31:10.874,-5.05,2.47,-2.8,1.77,0.44,4.46
2025-12-17 14:31:10.897,-5.24,-3.69,5.41,2.5,0.14,4.68
2025-12-17 14:31:10.921,-8.07,-10.69,8.83,1.6,-0.49,5.06
2025-12-17 14:31:10.943,-9.76,-20.81,2.12,1.21,-0.58,4.39
2025-12-17 14:31:10.966,-8.59,-25.06,1.11,1.6,-0.45,3.27
2025-12-17 14:31:10.989,-6.47,-28.36,0.75,1.2,-0.18,2.24
2025-12-17 14:31:11.012,-6.47,-31.4,1.67,1.61,-0.4,1.24
2025-12-17 14:31:11.035,-5.69,-32.0,3.05,0.41,-0.74,0.39
2025-12-17 14:31:11.059,-7.52,-33.09,-1.35,-1.14,-1.06,-0.49
2025-12-17 14:31:11.082,-10.33,-33.42,-6.34,-0.92,-0.82,-1.86
2025-12-17 14:31:11.105,-6.41,-24.71,-1.0,-1.08,-0.38,-2.87
2025-12-17 14:31:11.128,-4.44,-17.97,-0.67,-1.57,-0.1,-3.22
2025-12-17 14:31:11.151,-3.86,-11.95,1.54,-1.8,0.4,-3.38
2025-12-17 14:31:11.174,-2.26,-5.1,1.59,-1.68,0.81,-3.48
2025-12-17 14:31:11.197,0.39,3.06,1.77,-0.95,0.78,-3.29
2025-12-17 14:31:11.220,3.3,10.04,3.13,-0.29,0.24,-2.61
2025-12-17 14:31:11.242,5.02,13.48,1.2,0.08,-0.6,-1.59
2025-12-17 14:31:11.265,5.76,15.43,-1.9,0.86,-1.23,-0.51
2025-12-17 14:31:11.288,5.52,16.59,-4.28,1.58,-1.48,0.76
2025-12-17 14:31:11.311,2.77,15.54,-5.09,1.97,-1.17,2.19
2025-12-17 14:31:11.334,-1.38,11.78,-4.99,2.06,-0.27,3.2
2025-12-17 14:31:11.357,-3.68,6.75,-2.18,2.02,0.42,3.71
2025-12-17 14:31:11.380,-8.47,-0.67,0.97,1.52,0.79,4.53
2025-12-17 14:31:11.404,-12.16,-11.82,-1.67,1.85,1.27,4.09
2025-12-17 14:31:11.426,-11.15,-19.91,5.17,4.01,1.4,3.59
2025-12-17 14:31:11.449,-9.44,-24.68,15.31,4.42,1.06,3.04
2025-12-17 14:31:11.472,-11.53,-29.92,24.89,1.91,1.05,1.97
2025-12-17 14:31:11.495,-6.86,-26.53,19.19,-1.48,0.25,0.8
2025-12-17 14:31:11.519,-6.61,-27.69,4.93,-2.9,-0.58,0.02
2025-12-17 14:31:11.541,-6.29,-26.33,-1.75,-0.6,-1.21,0.95
2025-12-17 14:31:11.564,-6.5,-23.97,2.24,-1.34,-0.9,-0.32
2025-12-17 14:31:11.587,-4.24,-20.0,-0.57,-2.51,-0.16,-1.01
2025-12-17 14:31:11.611,-4.91,-18.01,-4.81,-2.37,0.26,-1.49
2025-12-17 14:31:11.634,-4.63,-14.39,-1.99,-0.8,0.3,-1.76
2025-12-17 14:31:11.657,-4.89,-10.47,1.22,-0.44,0.34,-2.15
2025-12-17 14:31:11.680,-4.44,-6.11,3.91,-1.1,0.14,-2.5
2025-12-17 14:31:11.703,-3.99,-2.82,3.02,-1.77,-0.0,-2.36
2025-12-17 14:31:11.725,-1.32,0.68,1.11,-1.88,-0.26,-2.56
2025-12-17 14:31:11.748,0.1,2.97,1.29,-1.51,-0.58,-2.31
2025-12-17 14:31:11.771,2.09,3.32,-2.33,-1.48,-0.64,-1.67
2025-12-17 14:31:11.794,3.18,3.23,-3.75,-0.37,-0.6,-0.58
2025-12-17 14:31:11.817,2.59,1.75,-3.33,0.01,-0.37,0.62
2025-12-17 14:31:11.840,1.58,0.38,-4.07,0.53,-0.33,0.98
2025-12-17 14:31:11.863,1.44,-1.06,-3.29,1.13,-0.21,1.56
2025-12-17 14:31:11.887,-0.09,-4.05,-3.25,1.35,0.25,2.11
2025-12-17 14:31:11.910,-0.95,-6.83,-4.17,2.05,1.01,2.61
2025-12-17 14:31:11.932,-1.73,-7.22,0.37,3.43,0.31,3.41
2025-12-17 14:31:11.956,-3.07,-10.15,8.18,3.81,-1.73,4.14
2025-12-17 14:31:11.979,-4.47,-11.05,3.59,4.25,-2.93,3.24
2025-12-17 14:31:12.002,-5.16,-9.79,5.06,4.94,-3.72,2.28
2025-12-17 14:31:12.025,-0.0,-7.12,6.41,5.25,-5.42,2.56
2025-12-17 14:31:12.047,-1.5,-4.36,10.98,6.14,-8.82,4.67
2025-12-17 14:31:12.070,-6.89,-10.13,4.82,8.7,-8.82,1.93
2025-12-17 14:31:12.093,-8.04,-4.64,28.13,5.72,6.57,-0.32
2025-12-17 14:31:12.116,-1.36,-7.48,8.64,2.24,6.21,0.87
2025-12-17 14:31:12.139,-5.31,-4.29,14.09,1.99,3.87,2.65
2025-12-17 14:31:12.162,-13.82,-4.69,12.03,2.62,4.44,1.78
2025-12-17 14:31:12.185,-5.81,-2.45,24.79,-0.27,2.08,0.0
2025-12-17 14:31:12.208,-1.2,-3.77,1.18,-1.93,2.47,0.35
2025-12-17 14:31:12.231,-4.82,-4.88,4.16,0.37,2.04,0.61
2025-12-17 14:31:12.254,-3.26,-3.8,11.83,0.14,1.81,1.36
2025-12-17 14:31:12.277,-7.26,-4.95,7.23,-0.36,0.55,1.37
2025-12-17 14:31:12.301,-5.41,-2.65,4.38,-0.1,0.91,1.68
2025-12-17 14:31:12.324,-8.37,-3.74,8.75,-0.15,1.36,1.72
2025-12-17 14:31:12.347,-7.08,-2.53,9.81,-0.82,0.51,1.6
2025-12-17 14:31:12.370,-11.89,-5.66,10.5,-1.21,0.22,0.95
2025-12-17 14:31:12.393,-10.48,-4.74,7.04,-2.37,3.39,0.18
2025-12-17 14:31:12.416,-17.31,-5.1,11.0,-3.45,7.26,-1.37
2025-12-17 14:31:12.438,-12.86,-3.57,7.99,-3.67,2.87,-2.21
2025-12-17 14:31:12.461,-2.14,-0.74,0.68,-3.33,0.55,-2.15
2025-12-17 14:31:12.484,-3.12,0.98,-1.52,-4.64,-0.35,0.34
2025-12-17 14:31:12.508,-4.08,-4.69,-3.14,-3.54,0.45,0.72
2025-12-17 14:31:12.531,-6.78,-3.68,0.44,-2.4,0.01,0.29
2025-12-17 14:31:12.553,-7.56,-2.34,3.29,-3.01,-1.72,-1.47
2025-12-17 14:31:12.576,-4.51,-1.11,0.81,-4.39,-4.37,-2.56
2025-12-17 14:31:12.599,-2.69,1.05,-5.94,-3.61,-5.63,-3.36
2025-12-17 14:31:12.622,-3.8,-2.54,-3.05,-2.8,-3.85,-3.65
2025-12-17 14:31:12.646,-4.42,-4.19,0.67,-2.6,-2.21,-3.33
2025-12-17 14:31:12.669,-4.92,-7.83,5.18,-3.21,-2.06,-3.65
2025-12-17 14:31:12.692,-3.89,-9.88,4.71,-4.47,-2.42,-3.08
2025-12-17 14:31:12.715,-5.29,-11.0,2.08,-3.58,-2.5,-3.97
2025-12-17 14:31:12.738,1.52,-8.4,-0.81,-5.42,-1.83,-1.71
2025-12-17 14:31:12.761,2.99,-6.39,-3.58,-4.75,0.01,2.13
2025-12-17 14:31:12.784,-1.35,-10.06,-1.05,-3.28,-0.55,4.12
2025-12-17 14:31:12.807,-7.52,-13.62,-1.53,-3.86,-1.41,1.51
2025-12-17 14:31:12.829,-8.67,-16.36,-8.27,-3.08,0.55,-0.22
2025-12-17 14:31:12.853,-4.68,-11.38,-7.28,-0.36,1.18,-2.62
2025-12-17 14:31:12.876,-2.83,-7.87,-0.86,0.05,0.44,-2.07
2025-12-17 14:31:12.899,-3.31,-8.52,-3.22,-0.92,-0.29,0.01
2025-12-17 14:31:12.922,-4.53,-8.37,-4.49,-1.44,-1.16,0.61
2025-12-17 14:31:12.945,-2.02,-5.85,-3.85,-1.68,-1.65,1.0
2025-12-17 14:31:12.968,-1.98,-7.2,-5.96,-1.46,-1.56,0.82
2025-12-17 14:31:12.991,-1.31,-7.33,-6.1,-1.11,-0.34,0.16
2025-12-17 14:31:13.014,-2.55,-6.79,-5.82,-0.64,0.3,-0.58
2025-12-17 14:31:13.036,-0.23,-6.26,-4.87,-0.25,0.18,-0.56
2025-12-17 14:31:13.060,-2.0,-5.82,-4.86,-0.17,-0.11,-0.14
2025-12-17 14:31:13.083,-1.54,-5.04,-4.43,-0.11,-0.38,0.24
2025-12-17 14:31:13.106,-2.18,-5.66,-3.84,0.24,-0.8,0.91
2025-12-17 14:31:13.129,-3.76,-9.25,-8.76,0.45,-0.13,0.51
2025-12-17 14:31:13.152,-4.52,-7.63,-4.63,0.9,-0.01,0.12
2025-12-17 14:31:13.175,-2.08,-8.55,-4.59,1.18,0.04,0.2
2025-12-17 14:31:13.198,-3.51,-10.18,-4.56,1.09,-0.44,0.78
2025-12-17 14:31:13.220,-4.44,-10.79,-5.77,1.0,-0.93,0.57
2025-12-17 14:31:13.243,-4.28,-10.33,-5.35,1.18,-0.86,0.05
2025-12-17 14:31:13.266,-3.62,-10.8,-6.6,1.17,-0.84,-0.19
2025-12-17 14:31:13.289,-6.23,-10.24,-5.33,1.14,-0.46,-0.14
2025-12-17 14:31:13.312,-7.65,-10.84,-4.25,1.11,-0.58,-0.09
2025-12-17 14:31:13.335,-6.73,-11.54,-4.23,0.51,-0.72,-1.78
2025-12-17 14:31:13.359,-6.71,-11.14,-3.13,-0.3,-0.18,-2.0
2025-12-17 14:31:13.381,-6.06,-11.14,-5.69,-0.6,-0.34,-2.71
2025-12-17 14:31:13.404,-1.74,-9.82,-4.96,-0.31,0.02,-2.33
2025-12-17 14:31:13.427,-0.6,-8.15,-3.79,-0.18,0.89,-1.51
2025-12-17 14:31:13.450,1.68,-9.0,-3.38,0.42,-0.24,-0.82
2025-12-17 14:31:13.474,4.1,-10.93,-3.09,0.29,-1.75,-0.92
2025-12-17 14:31:13.497,5.46,-7.86,-2.31,-0.67,-1.44,0.0
2025-12-17 14:31:13.520,1.74,-7.55,-2.32,-1.08,-1.14,0.91
2025-12-17 14:31:13.543,2.24,-8.44,-3.18,-0.77,-1.21,0.63
2025-12-17 14:31:13.566,3.09,-9.45,-3.53,-0.29,-0.04,-0.26
2025-12-17 14:31:13.589,1.79,-6.52,-2.46,0.16,0.16,-0.3
2025-12-17 14:31:13.612,0.86,-7.83,-1.5,0.53,-0.29,-0.0
2025-12-17 14:31:13.635,0.34,-7.81,-0.86,0.23,-0.25,0.1
2025-12-17 14:31:13.657,0.08,-6.84,-0.76,-0.17,-0.0,-0.29
2025-12-17 14:31:13.680,-0.69,-6.47,-1.66,-0.68,0.36,-0.13
2025-12-17 14:31:13.703,0.65,-5.68,-3.51,-0.67,0.47,-0.33
2025-12-17 14:31:13.726,2.12,-4.67,-2.85,0.4,0.5,-0.63
2025-12-17 14:31:13.749,-0.13,-7.35,-1.77,0.54,0.74,-0.45
2025-12-17 14:31:13.772,0.54,-9.54,-2.56,0.64,1.89,-0.69
2025-12-17 14:31:13.795,2.3,-10.54,-1.77,0.82,2.86,-0.28
2025-12-17 14:31:13.818,3.06,-12.0,-1.29,0.43,2.99,0.19
2025-12-17 14:31:13.842,-0.15,-12.5,-1.97,0.6,3.49,-0.35
2025-12-17 14:31:13.865,-1.08,-12.77,-0.58,0.82,3.07,-0.67
2025-12-17 14:31:13.888,-1.34,-11.98,-1.15,0.7,2.64,-0.92
2025-12-17 14:31:13.911,-0.62,-10.63,-2.34,0.76,3.4,-0.95
2025-12-17 14:31:13.933,0.79,-8.25,-0.24,0.89,3.65,-0.04
2025-12-17 14:31:13.956,-0.31,-10.43,0.58,0.07,2.53,0.79
2025-12-17 14:31:13.980,-0.12,-11.54,-0.47,-0.51,2.23,1.21
2025-12-17 14:31:14.002,0.49,-11.86,-2.72,-0.74,2.09,1.34
2025-12-17 14:31:14.025,3.03,-12.11,-3.07,-0.39,1.96,0.66
2025-12-17 14:31:14.048,5.43,-9.75,-3.7,-0.25,1.08,0.63
2025-12-17 14:31:14.072,6.06,-9.07,-3.63,-0.3,0.23,1.76
2025-12-17 14:31:14.095,5.25,-10.67,-2.97,-0.77,-0.72,3.09
2025-12-17 14:31:14.117,1.26,-12.9,-2.98,-1.74,-1.04,3.11
2025-12-17 14:31:14.140,0.3,-10.99,-5.05,-1.53,-1.17,2.43
2025-12-17 14:31:14.163,0.02,-9.86,-3.82,-1.07,-1.35,1.79
2025-12-17 14:31:14.186,-1.55,-9.63,-2.68,-1.37,-2.07,0.7
2025-12-17 14:31:14.209,-1.64,-10.15,-5.88,-1.24,-0.72,-0.44
2025-12-17 14:31:14.232,-0.75,-7.62,-3.67,-0.23,0.22,-1.04
2025-12-17 14:31:14.255,0.96,-7.35,-3.72,0.43,0.55,-1.38
2025-12-17 14:31:14.278,0.23,-7.1,-3.18,0.8,0.36,-1.86
2025-12-17 14:31:14.301,1.72,-6.52,-2.97,1.01,0.53,-2.09
2025-12-17 14:31:14.324,1.61,-6.82,-2.26,1.02,0.11,-1.73
2025-12-17 14:31:14.348,0.72,-7.57,-1.86,1.04,-0.63,-1.18
2025-12-17 14:31:14.371,-0.84,-9.71,-1.8,0.94,-0.76,-0.86
2025-12-17 14:31:14.394,-1.34,-11.19,-1.36,0.55,-0.76,-0.61
2025-12-17 14:31:14.417,-0.09,-10.76,-1.06,0.1,-0.91,-0.55
2025-12-17 14:31:14.440,1.84,-9.56,-1.14,0.1,-1.08,-0.49
2025-12-17 14:31:14.463,1.54,-11.07,-0.66,0.18,-1.21,0.04
2025-12-17 14:31:14.485,0.21,-12.99,-0.87,-0.09,-1.21,0.41
2025-12-17 14:31:14.508,-1.41,-12.42,-2.36,-0.32,-0.83,0.43
2025-12-17 14:31:14.531,-0.77,-10.45,-3.06,-0.02,-0.08,0.16
2025-12-17 14:31:14.554,1.2,-8.95,-2.2,0.21,0.22,0.3
2025-12-17 14:31:14.577,2.13,-8.78,-2.23,0.38,0.5,0.33
2025-12-17 14:31:14.600,1.98,-8.32,-3.07,0.69,1.13,0.17
2025-12-17 14:31:14.623,1.58,-7.37,-1.73,0.91,2.19,-0.16
2025-12-17 14:31:14.646,0.79,-7.25,-1.63,1.42,3.28,-0.78
2025-12-17 14:31:14.669,4.02,-9.84,-1.51,2.28,2.51,-1.15
2025-12-17 14:31:14.693,2.49,-12.17,-0.68,3.05,1.63,-1.52
2025-12-17 14:31:14.716,1.24,-10.91,-3.95,3.14,2.13,-2.07
2025-12-17 14:31:14.738,6.8,-7.95,0.21,3.16,2.06,-0.63
2025-12-17 14:31:14.761,7.5,-9.2,6.72,1.74,1.31,1.22
2025-12-17 14:31:14.785,2.77,-11.0,4.5,0.52,-0.17,1.14
2025-12-17 14:31:14.808,1.01,-13.63,3.96,-0.13,-0.3,-0.15
2025-12-17 14:31:14.831,0.83,-12.07,0.19,-0.73,0.22,-0.84
2025-12-17 14:31:14.853,2.92,-9.03,2.05,-0.69,0.92,-0.63
2025-12-17 14:31:14.876,1.42,-11.15,3.0,-0.38,0.3,-0.18
2025-12-17 14:31:14.899,-0.86,-12.21,1.81,-1.01,0.55,-0.84
2025-12-17 14:31:14.922,-0.85,-11.38,0.03,-1.01,1.26,-1.79
2025-12-17 14:31:14.945,9.28,-6.15,-1.84,-1.79,1.8,-2.02
2025-12-17 14:31:14.968,2.83,-7.54,-0.57,-0.39,0.04,-0.32
2025-12-17 14:31:14.991,1.47,-9.32,0.64,0.15,-0.25,0.27
2025-12-17 14:31:15.014,5.38,-7.34,-2.99,0.74,1.92,0.14
2025-12-17 14:31:15.037,5.93,-6.65,-0.14,1.94,4.88,0.84
2025-12-17 14:31:15.061,12.5,-13.84,-8.45,1.27,1.15,-0.13
2025-12-17 14:31:15.083,2.73,-9.57,1.83,1.68,1.0,-1.21
2025-12-17 14:31:15.106,5.7,-8.0,5.15,1.25,0.1,-1.17
2025-12-17 14:31:15.130,3.45,-9.1,6.37,0.08,-1.02,-1.11
2025-12-17 14:31:15.153,4.89,-7.93,4.92,-0.76,-0.79,-0.79
2025-12-17 14:31:15.176,4.16,-7.92,2.57,-1.08,-0.05,-0.4
2025-12-17 14:31:15.199,4.18,-7.31,3.25,-0.74,-0.05,-0.29
2025-12-17 14:31:15.221,6.22,-7.24,1.74,-0.65,0.17,-0.01
2025-12-17 14:31:15.244,0.56,-9.27,4.68,-0.42,-0.04,-0.33
2025-12-17 14:31:15.267,3.54,-9.02,4.51,-0.59,0.59,-0.34
2025-12-17 14:31:15.290,9.7,-7.54,-6.25,-0.23,2.11,-0.17
2025-12-17 14:31:15.313,2.66,-6.33,6.4,0.79,2.25,0.51
2025-12-17 14:31:15.336,1.31,-7.64,11.08,0.15,0.37,1.68
2025-12-17 14:31:15.359,1.72,-10.04,4.04,-0.95,0.11,1.21
2025-12-17 14:31:15.382,-0.58,-11.56,6.31,-0.73,0.28,1.01
2025-12-17 14:31:15.405,3.61,-8.25,6.52,-0.47,-0.45,0.12
2025-12-17 14:31:15.428,-0.58,-8.95,2.41,-0.83,1.38,0.77
2025-12-17 14:31:15.451,2.38,-9.84,1.72,-0.47,0.46,1.0
2025-12-17 14:31:15.474,0.94,-9.5,0.89,0.19,0.47,0.77
2025-12-17 14:31:15.498,3.84,-8.41,1.29,-0.31,1.81,0.98
2025-12-17 14:31:15.520,0.56,-7.76,2.6,-0.75,3.03,1.38
2025-12-17 14:31:15.543,-0.21,-10.62,-1.86,-0.12,3.32,0.95
2025-12-17 14:31:15.566,1.54,-9.06,8.15,-0.15,1.39,0.25
2025-12-17 14:31:15.589,1.35,-8.24,1.52,-0.29,0.88,0.23
2025-12-17 14:31:15.612,-1.3,-11.14,5.06,-0.29,0.88,-0.41
2025-12-17 14:31:15.635,-0.06,-9.44,4.27,-0.8,0.4,-0.95
2025-12-17 14:31:15.659,2.78,-5.69,3.44,-1.18,-0.47,-0.66
2025-12-17 14:31:15.682,1.87,-7.2,0.16,-0.94,-0.74,-0.42
2025-12-17 14:31:15.705,0.79,-9.39,2.42,-0.75,-0.47,-0.47
2025-12-17 14:31:15.727,2.04,-9.61,1.3,-0.54,-0.7,-0.53
2025-12-17 14:31:15.751,1.72,-10.13,2.32,-0.12,-2.31,-1.11
2025-12-17 14:31:15.773,1.85,-9.47,1.24,0.14,-3.26,-1.28
2025-12-17 14:31:15.797,3.45,-9.0,0.2,-0.01,-3.03,-0.74
2025-12-17 14:31:15.820,3.17,-10.48,-0.22,0.02,-2.34,0.07
2025-12-17 14:31:15.843,3.88,-10.45,-3.2,-0.15,-0.42,-0.19
2025-12-17 14:31:15.866,3.16,-9.45,-2.17,0.21,2.22,-0.6
2025-12-17 14:31:15.889,0.11,-10.37,0.01,0.97,2.19,-1.21
2025-12-17 14:31:15.912,1.91,-9.62,0.86,0.97,2.57,-1.8
2025-12-17 14:31:15.935,1.18,-8.19,2.19,1.35,3.5,-1.69
2025-12-17 14:31:15.957,4.23,-6.39,3.99,1.7,1.64,-1.64
2025-12-17 14:31:15.980,4.4,-7.55,6.14,1.16,0.95,-0.93
2025-12-17 14:31:16.003,2.04,-4.19,-7.48,0.02,1.87,0.1
2025-12-17 14:31:16.026,6.97,-9.94,4.69,-0.2,1.12,0.44
2025-12-17 14:31:16.049,8.87,-6.86,3.64,-0.63,1.38,0.37
2025-12-17 14:31:16.072,6.66,-5.92,1.73,-0.69,1.37,1.38
2025-12-17 14:31:16.095,6.0,-6.15,1.32,-0.85,2.33,2.61
2025-12-17 14:31:16.118,5.99,-6.94,4.29,-1.59,2.46,3.19
2025-12-17 14:31:16.141,-2.21,-11.86,3.73,-1.45,1.08,2.56
2025-12-17 14:31:16.165,-5.04,-15.01,1.42,-0.29,-0.07,-1.26
2025-12-17 14:31:16.187,1.58,-7.92,1.61,0.35,-0.63,-3.27
2025-12-17 14:31:16.211,6.45,-4.23,1.86,0.48,-0.73,-2.02
2025-12-17 14:31:16.234,1.11,-10.18,2.58,0.55,-0.61,-1.25
2025-12-17 14:31:16.257,5.43,-8.84,3.78,-0.12,0.44,-0.29
2025-12-17 14:31:16.280,6.73,-6.04,5.0,-0.58,0.47,1.19
2025-12-17 14:31:16.303,-0.29,-10.36,0.7,0.2,-0.44,0.76
2025-12-17 14:31:16.325,2.48,-9.23,-0.02,1.08,-0.6,-0.23
2025-12-17 14:31:16.349,4.45,-8.74,1.57,1.21,0.05,0.35
2025-12-17 14:31:16.372,7.44,-8.14,3.94,1.16,0.51,0.85
2025-12-17 14:31:16.395,3.94,-11.66,4.36,1.72,-0.55,-0.48
2025-12-17 14:31:16.417,6.02,-10.31,3.51,2.03,-0.75,-1.55
2025-12-17 14:31:16.441,8.54,-8.6,2.95,2.25,-0.48,-1.66
2025-12-17 14:31:16.464,12.38,-7.61,5.31,2.36,-0.09,-0.75
2025-12-17 14:31:16.486,10.44,-8.78,8.61,2.08,0.58,0.47
2025-12-17 14:31:16.509,6.84,-9.97,10.12,1.68,1.66,1.01
2025-12-17 14:31:16.532,10.07,-11.24,16.83,0.81,1.16,2.1
2025-12-17 14:31:16.555,5.94,-6.24,10.92,0.15,0.92,3.31
2025-12-17 14:31:16.578,3.0,-3.51,2.97,-0.06,1.38,3.46
2025-12-17 14:31:16.601,-0.79,-4.49,3.19,-0.39,3.12,3.96
2025-12-17 14:31:16.624,-5.85,-8.3,9.1,-1.25,2.0,3.81
2025-12-17 14:31:16.647,-14.87,-8.58,1.8,-0.61,-2.93,1.09
2025-12-17 14:31:16.671,-12.69,-8.34,-2.99,0.66,-4.72,-1.26
2025-12-17 14:31:16.694,-13.02,-9.73,-4.69,0.35,-1.94,-2.74
2025-12-17 14:31:16.717,-9.53,-6.23,-5.8,-0.41,0.06,-3.03
2025-12-17 14:31:16.740,-6.69,-4.44,-6.35,-0.66,0.62,-2.88
2025-12-17 14:31:16.763,-6.81,-3.64,-5.83,-0.12,1.14,-3.18
2025-12-17 14:31:16.786,-4.75,-2.24,-7.24,0.62,1.68,-3.36
2025-12-17 14:31:16.809,-4.66,-0.44,-3.99,1.88,3.11,-2.91
2025-12-17 14:31:16.832,-3.5,-2.92,2.42,2.26,3.28,-2.77
2025-12-17 14:31:16.855,-5.34,0.2,4.07,2.88,2.8,-3.05
2025-12-17 14:31:16.878,-0.19,3.85,7.55,4.0,3.01,-3.2
2025-12-17 14:31:16.900,2.97,2.44,14.44,3.59,3.33,-1.98
2025-12-17 14:31:16.923,-0.47,0.4,17.09,3.53,2.28,-1.89
2025-12-17 14:31:16.946,3.15,7.35,19.02,3.28,1.9,-2.38
2025-12-17 14:31:16.969,-2.47,2.94,14.23,3.55,2.04,-1.81
2025-12-17 14:31:16.992,-1.2,2.72,10.6,3.04,1.73,-1.57
2025-12-17 14:31:17.015,-8.27,7.47,28.81,5.32,-2.23,-1.37
2025-12-17 14:31:17.039,-3.17,-4.67,22.92,-0.1,-2.53,-0.4
2025-12-17 14:31:17.062,-7.43,-1.01,5.29,-0.81,-1.36,0.96
2025-12-17 14:31:17.084,-4.52,-0.24,2.55,0.03,0.95,0.45
2025-12-17 14:31:17.107,-2.93,3.85,6.41,1.21,2.99,-0.4
2025-12-17 14:31:17.131,10.25,-4.76,-28.57,-1.99,1.21,-1.86
2025-12-17 14:31:17.153,2.77,2.53,10.78,0.05,0.04,-0.46
2025-12-17 14:31:17.177,-0.36,0.79,7.34,-0.0,-0.11,-0.37
2025-12-17 14:31:17.200,-0.15,1.33,10.06,-0.12,-0.07,0.0
2025-12-17 14:31:17.223,-0.2,1.36,8.44,0.15,-0.1,0.16
2025-12-17 14:31:17.246,-0.28,0.18,8.5,-0.1,-0.06,-0.01
2025-12-17 14:31:17.268,-0.74,0.66,9.24,0.07,-0.07,0.12
2025-12-17 14:31:17.291,-0.55,-0.24,8.92,0.09,-0.08,-0.05
2025-12-17 14:31:17.314,-0.42,-0.39,8.31,0.05,-0.07,-0.07
2025-12-17 14:31:17.337,-0.61,-0.14,9.11,-0.01,-0.08,0.16
2025-12-17 14:31:17.360,-0.81,-0.06,9.04,-0.01,-0.1,0.16
2025-12-17 14:31:17.383,-0.46,0.04,8.99,-0.01,-0.09,0.14
2025-12-17 14:31:17.406,-0.61,-0.01,8.95,-0.01,-0.08,0.14
2025-12-17 14:31:17.429,-0.61,0.07,8.98,-0.01,-0.09,0.14
2025-12-17 14:31:17.452,-0.68,0.01,9.06,-0.01,-0.09,0.14
2025-12-17 14:31:17.475,-0.63,0.07,9.01,-0.01,-0.09,0.14
2025-12-17 14:31:17.499,-0.65,-0.0,8.98,-0.01,-0.1,0.15
2025-12-17 14:31:17.522,-0.63,0.34,9.56,-0.1,-0.09,0.14
2025-12-17 14:31:17.544,-0.81,-0.2,8.86,0.0,-0.14,0.14
2025-12-17 14:31:17.567,-0.67,-0.01,8.99,-0.0,-0.07,0.13
2025-12-17 14:31:17.590,-0.57,-0.07,8.87,-0.01,-0.1,0.13
2025-12-17 14:31:17.613,-0.59,-0.02,9.1,-0.01,-0.07,0.13
2025-12-17 14:31:17.637,-0.6,0.04,9.04,-0.01,-0.07,0.13
2025-12-17 14:31:17.660,-0.54,0.04,10.03,-0.01,-0.19,0.12
2025-12-17 14:31:17.683,-0.58,-0.14,8.46,0.02,-0.08,0.12
2025-12-17 14:31:17.706,-0.52,-0.01,9.12,0.01,-0.07,0.13
2025-12-17 14:31:17.728,-0.88,-0.09,8.76,-0.01,-0.08,0.13
2025-12-17 14:31:17.751,-0.78,0.04,9.13,-0.01,-0.12,0.13
2025-12-17 14:31:17.774,-0.3,0.02,8.87,-0.01,-0.08,0.13
2025-12-17 14:31:17.797,-0.38,-0.01,9.07,0.0,-0.09,0.12
2025-12-17 14:31:17.821,-0.85,-0.0,8.75,0.0,-0.05,0.13
2025-12-17 14:31:17.844,-0.06,0.54,9.18,-0.0,-0.08,0.18
2025-12-17 14:31:17.867,-0.6,0.09,9.02,-0.01,-0.07,0.16
2025-12-17 14:31:17.890,-0.84,0.02,9.24,-0.02,-0.12,0.11
2025-12-17 14:31:17.913,-0.44,-0.12,8.96,-0.01,-0.09,0.13
2025-12-17 14:31:17.936,-0.41,-0.06,9.03,-0.0,-0.04,0.13
2025-12-17 14:31:17.958,-0.83,0.12,8.89,-0.02,-0.1,0.12
2025-12-17 14:31:17.981,-0.67,0.0,9.09,-0.01,-0.13,0.12
2025-12-17 14:31:18.004,-0.3,-0.2,8.6,-0.0,-0.06,0.13
2025-12-17 14:31:18.027,-0.77,0.1,9.0,0.01,-0.02,0.13
2025-12-17 14:31:18.050,-0.79,0.14,9.0,-0.03,-0.12,0.13
2025-12-17 14:31:18.073,-0.6,0.01,8.93,-0.02,-0.12,0.13
2025-12-17 14:31:18.096,-2.93,-0.18,11.64,-0.04,-0.47,0.12
2025-12-17 14:31:18.119,-0.16,-0.0,9.13,0.05,-0.02,0.19
2025-12-17 14:31:18.143,0.01,-0.05,9.15,0.02,-0.15,0.14
2025-12-17 14:31:18.165,0.25,0.02,8.41,0.06,-0.06,0.14
2025-12-17 14:31:18.189,-0.76,0.12,9.34,-0.03,-0.05,0.14
2025-12-17 14:31:18.212,-0.46,0.0,8.86,-0.02,-0.11,0.12
2025-12-17 14:31:18.234,-0.87,0.1,9.45,-0.05,-0.07,0.11
2025-12-17 14:31:18.257,-0.41,0.0,8.78,-0.01,-0.07,0.12
2025-12-17 14:31:18.280,-0.38,0.01,8.81,-0.01,-0.05,0.13
2025-12-17 14:31:18.303,-0.53,-0.01,8.98,-0.01,-0.06,0.13
2025-12-17 14:31:18.326,-0.53,0.03,9.04,-0.02,-0.09,0.13
2025-12-17 14:31:18.349,-0.36,-0.05,8.96,-0.0,-0.1,0.13
2025-12-17 14:31:18.373,-0.54,-0.02,9.02,-0.01,-0.07,0.13
2025-12-17 14:31:18.396,-0.61,-0.05,9.06,-0.01,-0.1,0.13
2025-12-17 14:31:18.418,-0.52,-0.07,8.93,-0.01,-0.09,0.13
2025-12-17 14:31:18.442,-0.43,-0.01,9.06,-0.0,-0.08,0.13
2025-12-17 14:31:18.465,-0.58,-0.03,9.05,-0.01,-0.08,0.13
2025-12-17 14:31:18.488,-0.56,0.03,9.04,-0.01,-0.08,0.13
2025-12-17 14:31:18.511,-0.28,-0.03,9.01,-0.0,-0.09,0.13
2025-12-17 14:31:18.534,-0.51,0.06,8.88,0.02,-0.07,0.13
2025-12-17 14:31:18.557,-0.68,0.08,9.08,-0.01,-0.09,0.13
2025-12-17 14:31:18.580,-0.48,0.02,8.95,-0.01,-0.1,0.12
2025-12-17 14:31:18.602,-0.47,0.04,8.97,-0.01,-0.08,0.13
2025-12-17 14:31:18.625,-0.49,0.01,8.96,-0.01,-0.08,0.12
2025-12-17 14:31:18.648,-0.45,-0.02,9.05,-0.01,-0.08,0.13
2025-12-17 14:31:18.671,-0.54,-0.05,8.97,-0.01,-0.09,0.13
2025-12-17 14:31:18.694,-0.49,0.02,9.11,-0.0,-0.08,0.13
2025-12-17 14:31:18.717,-0.54,-0.04,9.02,-0.01,-0.08,0.13
2025-12-17 14:31:18.740,-0.58,-0.02,9.07,-0.01,-0.08,0.12
2025-12-17 14:31:18.763,-0.56,0.03,8.9,-0.01,-0.08,0.13
2025-12-17 14:31:18.786,-0.51,-0.02,9.05,-0.01,-0.08,0.12
2025-12-17 14:31:18.810,-0.45,-0.0,9.13,-0.0,-0.08,0.12
2025-12-17 14:31:18.832,-0.53,-0.01,9.09,-0.01,-0.08,0.12
2025-12-17 14:31:18.855,-0.49,0.03,9.05,-0.01,-0.09,0.13
2025-12-17 14:31:18.879,-0.51,0.02,9.01,-0.0,-0.08,0.13
2025-12-17 14:31:18.902,-0.56,0.04,8.96,-0.01,-0.09,0.13
2025-12-17 14:31:18.925,-0.49,0.03,9.01,-0.01,-0.09,0.13
2025-12-17 14:31:18.948,-0.51,-0.02,9.04,-0.01,-0.08,0.13
2025-12-17 14:31:18.971,-0.47,-0.07,8.97,-0.01,-0.09,0.13
2025-12-17 14:31:18.993,-0.45,-0.03,9.02,-0.0,-0.08,0.13
2025-12-17 14:31:19.016,-0.55,-0.01,9.03,-0.01,-0.08,0.12
2025-12-17 14:31:19.039,-0.53,-0.01,9.13,-0.01,-0.08,0.13
2025-12-17 14:31:19.062,-0.5,-0.01,9.0,-0.01,-0.08,0.13
2025-12-17 14:31:19.085,-0.56,-0.02,9.04,-0.01,-0.08,0.13
2025-12-17 14:31:19.108,-0.54,-0.05,8.98,-0.0,-0.08,0.13
2025-12-17 14:31:19.131,-0.5,-0.03,9.11,-0.01,-0.08,0.13
2025-12-17 14:31:19.155,-0.53,-0.04,8.94,-0.01,-0.09,0.13
2025-12-17 14:31:19.178,-0.49,-0.0,8.88,0.0,-0.08,0.13
2025-12-17 14:31:19.201,-0.55,0.05,9.17,-0.01,-0.07,0.13
2025-12-17 14:31:19.224,-0.5,0.03,9.07,-0.02,-0.09,0.12
2025-12-17 14:31:19.247,-0.33,0.02,8.87,0.0,-0.07,0.13
2025-12-17 14:31:19.269,-0.62,0.04,9.21,-0.02,-0.08,0.13
2025-12-17 14:31:19.292,-0.46,-0.09,8.87,-0.01,-0.08,0.12
2025-12-17 14:31:19.315,-0.51,-0.02,9.02,-0.0,-0.08,0.13
2025-12-17 14:31:19.338,-0.51,-0.06,9.14,-0.01,-0.08,0.13
2025-12-17 14:31:19.361,-0.56,-0.01,8.94,-0.01,-0.08,0.13
2025-12-17 14:31:19.384,-0.51,-0.09,9.11,-0.01,-0.08,0.13
2025-12-17 14:31:19.407,-0.49,-0.03,8.97,-0.0,-0.08,0.13
2025-12-17 14:31:19.430,-0.46,0.03,8.99,-0.01,-0.08,0.13
2025-12-17 14:31:19.453,-0.49,0.04,9.04,-0.01,-0.08,0.12
2025-12-17 14:31:19.477,-0.53,-0.0,8.94,-0.01,-0.09,0.13
2025-12-17 14:31:19.500,-0.38,-0.01,9.01,-0.0,-0.08,0.13
2025-12-17 14:31:19.523,-0.53,0.09,9.05,-0.01,-0.08,0.12
2025-12-17 14:31:19.546,-0.46,-0.0,9.05,-0.01,-0.09,0.13
2025-12-17 14:31:19.569,-0.44,-0.09,8.95,0.0,-0.09,0.13
2025-12-17 14:31:19.592,-0.53,-0.02,8.93,0.01,-0.08,0.13
2025-12-17 14:31:19.615,-0.62,0.0,9.07,-0.01,-0.08,0.13
2025-12-17 14:31:19.637,-0.51,-0.07,9.0,-0.01,-0.09,0.13
2025-12-17 14:31:19.660,-0.52,-0.04,8.95,-0.01,-0.08,0.13
2025-12-17 14:31:19.683,-0.47,-0.01,9.05,-0.01,-0.08,0.13
2025-12-17 14:31:19.706,-0.53,0.04,9.02,-0.01,-0.08,0.13
2025-12-17 14:31:19.729,-0.55,0.02,8.99,-0.01,-0.08,0.13
2025-12-17 14:31:19.752,-0.47,0.03,9.03,-0.01,-0.08,0.13
2025-12-17 14:31:19.775,-0.51,0.01,9.06,-0.01,-0.08,0.13
2025-12-17 14:31:19.798,-0.45,-0.04,9.01,-0.01,-0.08,0.13
2025-12-17 14:31:19.821,-0.38,0.02,9.01,-0.01,-0.08,0.13
2025-12-17 14:31:19.844,-0.5,0.01,9.03,-0.01,-0.08,0.12
2025-12-17 14:31:19.868,-0.4,0.0,8.98,-0.01,-0.08,0.13
2025-12-17 14:31:19.891,-0.49,0.03,9.05,-0.01,-0.08,0.13
2025-12-17 14:31:19.914,-0.51,0.02,8.93,-0.01,-0.08,0.13
2025-12-17 14:31:19.937,-0.57,-0.04,8.99,-0.01,-0.08,0.12
2025-12-17 14:31:19.960,-0.52,-0.02,8.97,-0.01,-0.08,0.13
2025-12-17 14:31:19.982,-0.49,0.05,9.07,-0.01,-0.08,0.13
2025-12-17 14:31:20.005,-0.51,-0.08,8.99,-0.01,-0.08,0.13
2025-12-17 14:31:20.028,-0.49,-0.04,8.97,-0.01,-0.08,0.13
2025-12-17 14:31:20.051,-0.51,-0.0,9.0,-0.01,-0.08,0.13
2025-12-17 14:31:20.074,-0.47,-0.04,8.96,-0.01,-0.08,0.13
2025-12-17 14:31:20.097,-0.45,0.03,9.13,-0.01,-0.08,0.13
2025-12-17 14:31:20.120,-0.5,0.01,9.06,-0.01,-0.08,0.13
2025-12-17 14:31:20.144,-0.5,0.01,9.11,-0.01,-0.08,0.12
2025-12-17 14:31:20.167,-0.53,0.01,9.06,-0.01,-0.09,0.12
2025-12-17 14:31:20.189,-0.51,0.0,9.02,-0.01,-0.08,0.13
2025-12-17 14:31:20.212,-0.56,0.01,9.0,-0.01,-0.08,0.13
2025-12-17 14:31:20.235,-0.52,0.12,8.94,-0.01,-0.08,0.13
2025-12-17 14:31:20.258,-0.48,-0.04,9.03,-0.01,-0.08,0.12
2025-12-17 14:31:20.281,-0.52,0.01,8.94,-0.01,-0.08,0.13
2025-12-17 14:31:20.304,-0.48,-0.01,9.0,-0.01,-0.08,0.12
2025-12-17 14:31:20.327,-0.55,-0.03,9.18,-0.0,-0.09,0.13
2025-12-17 14:31:20.351,-0.48,-0.07,8.98,-0.01,-0.08,0.12
2025-12-17 14:31:20.373,-0.51,0.0,9.08,-0.0,-0.08,0.13
2025-12-17 14:31:20.397,-0.49,0.0,9.02,-0.01,-0.08,0.13
2025-12-17 14:31:20.420,-0.48,-0.03,9.07,-0.01,-0.08,0.13
2025-12-17 14:31:20.443,-0.51,-0.03,9.01,-0.01,-0.08,0.13
2025-12-17 14:31:20.466,-0.5,-0.01,8.98,-0.01,-0.08,0.13
2025-12-17 14:31:20.489,-0.48,-0.01,9.0,-0.01,-0.08,0.12
2025-12-17 14:31:20.512,-0.51,0.0,9.0,-0.01,-0.08,0.13
2025-12-17 14:31:20.535,-0.51,-0.01,8.99,-0.01,-0.08,0.13
2025-12-17 14:31:20.558,-0.45,0.04,9.05,-0.01,-0.08,0.13
2025-12-17 14:31:20.580,-0.43,0.02,9.05,-0.01,-0.08,0.13
2025-12-17 14:31:20.603,-0.52,0.03,9.03,-0.01,-0.08,0.13
2025-12-17 14:31:20.626,-0.5,-0.07,9.07,-0.01,-0.08,0.13
2025-12-17 14:31:20.649,-0.53,-0.04,8.98,-0.0,-0.08,0.12
2025-12-17 14:31:20.672,-0.51,-0.01,9.07,-0.01,-0.08,0.12
2025-12-17 14:31:20.695,-0.48,-0.05,9.07,-0.01,-0.09,0.13
2025-12-17 14:31:20.719,-0.49,-0.02,9.05,-0.01,-0.08,0.13
2025-12-17 14:31:20.742,-0.48,0.03,9.0,-0.01,-0.08,0.13
2025-12-17 14:31:20.765,-0.48,0.06,8.99,-0.01,-0.08,0.13
2025-12-17 14:31:20.788,-0.5,0.03,8.98,-0.01,-0.08,0.12
2025-12-17 14:31:20.811,-0.53,-0.03,8.93,-0.01,-0.08,0.13
2025-12-17 14:31:20.834,-0.45,0.04,9.02,-0.01,-0.08,0.13
2025-12-17 14:31:20.857,-0.49,-0.03,8.99,-0.01,-0.08,0.13
2025-12-17 14:31:20.880,-0.52,-0.01,9.1,-0.01,-0.08,0.13
2025-12-17 14:31:20.903,-0.51,-0.11,8.94,-0.01,-0.08,0.13
2025-12-17 14:31:20.925,-0.6,0.0,9.06,-0.01,-0.08,0.12
2025-12-17 14:31:20.948,-0.51,-0.05,8.93,-0.01,-0.08,0.13
2025-12-17 14:31:20.971,-0.46,-0.04,9.14,-0.01,-0.08,0.13
2025-12-17 14:31:20.994,-0.52,-0.02,8.95,-0.01,-0.08,0.13
2025-12-17 14:31:21.017,-0.49,0.03,9.04,-0.01,-0.08,0.13
2025-12-17 14:31:21.040,-0.57,0.02,8.92,-0.01,-0.08,0.12
2025-12-17 14:31:21.063,-0.5,0.02,9.09,-0.01,-0.08,0.12
2025-12-17 14:31:21.086,-0.55,-0.01,8.98,-0.01,-0.08,0.13
2025-12-17 14:31:21.110,-0.51,-0.01,8.98,-0.01,-0.08,0.13
2025-12-17 14:31:21.133,-0.47,-0.01,9.05,-0.01,-0.08,0.13
2025-12-17 14:31:21.156,-0.53,-0.01,9.05,-0.01,-0.08,0.12
2025-12-17 14:31:21.179,-0.46,-0.02,9.0,-0.01,-0.08,0.13
2025-12-17 14:31:21.202,-0.45,0.02,8.98,-0.01,-0.08,0.13
2025-12-17 14:31:21.225,-0.56,0.03,9.0,-0.01,-0.08,0.13
2025-12-17 14:31:21.248,-0.53,0.02,9.02,-0.01,-0.08,0.13
2025-12-17 14:31:21.271,-0.44,-0.05,9.02,-0.01,-0.08,0.12
2025-12-17 14:31:21.294,-0.5,-0.03,8.93,-0.01,-0.08,0.13
2025-12-17 14:31:21.316,-0.52,0.0,9.05,-0.01,-0.08,0.13
2025-12-17 14:31:21.340,-0.48,-0.04,9.03,-0.01,-0.08,0.12
2025-12-17 14:31:21.363,-0.52,-0.05,8.99,-0.01,-0.09,0.13
2025-12-17 14:31:21.385,-0.48,-0.0,9.05,-0.01,-0.08,0.13
2025-12-17 14:31:21.409,-0.52,0.01,8.98,-0.0,-0.08,0.13
2025-12-17 14:31:21.432,-0.51,0.0,9.1,-0.01,-0.08,0.13
2025-12-17 14:31:21.455,-0.47,0.04,8.97,-0.01,-0.08,0.13
2025-12-17 14:31:21.477,-0.51,0.02,9.05,-0.01,-0.08,0.13
2025-12-17 14:31:21.500,-0.48,0.05,9.07,-0.01,-0.08,0.13
2025-12-17 14:31:21.523,-0.48,0.01,9.02,-0.01,-0.08,0.13
2025-12-17 14:31:21.546,-0.5,-0.03,9.03,-0.01,-0.08,0.13
2025-12-17 14:31:21.569,-0.48,0.0,8.99,-0.0,-0.08,0.13
2025-12-17 14:31:21.592,-0.51,-0.05,8.95,-0.01,-0.08,0.13
2025-12-17 14:31:21.615,-0.48,0.0,9.09,-0.01,-0.08,0.13
2025-12-17 14:31:21.639,-0.52,-0.02,9.04,-0.01,-0.08,0.13
2025-12-17 14:31:21.662,-0.46,-0.01,9.07,-0.01,-0.08,0.13
2025-12-17 14:31:21.685,-0.54,-0.03,9.02,-0.01,-0.08,0.13
2025-12-17 14:31:21.708,-0.46,0.01,8.98,-0.01,-0.08,0.13
2025-12-17 14:31:21.731,-0.51,0.0,8.99,-0.01,-0.08,0.13
2025-12-17 14:31:21.754,-0.43,0.1,9.05,-0.01,-0.08,0.13
2025-12-17 14:31:21.777,-0.44,0.02,9.01,-0.01,-0.08,0.13
2025-12-17 14:31:21.800,-0.58,-0.01,8.98,-0.01,-0.08,0.12
2025-12-17 14:31:21.823,-0.51,-0.0,9.1,-0.01,-0.08,0.13
2025-12-17 14:31:21.846,-0.5,0.0,9.0,-0.01,-0.08,0.13
2025-12-17 14:31:21.868,-0.53,-0.04,9.05,-0.01,-0.08,0.13
2025-12-17 14:31:21.891,-0.53,-0.02,9.07,-0.0,-0.08,0.12
2025-12-17 14:31:21.914,-0.5,-0.01,8.99,-0.01,-0.08,0.13
2025-12-17 14:31:21.937,-0.51,0.0,9.08,-0.01,-0.08,0.13
2025-12-17 14:31:21.961,-0.5,-0.05,8.94,-0.01,-0.08,0.13
2025-12-17 14:31:21.983,-0.45,-0.01,9.0,-0.01,-0.08,0.12
2025-12-17 14:31:22.006,-0.49,-0.06,9.09,-0.01,-0.08,0.13
2025-12-17 14:31:22.029,-0.46,0.02,8.99,-0.01,-0.08,0.13
2025-12-17 14:31:22.053,-0.47,-0.01,8.94,-0.01,-0.08,0.13
2025-12-17 14:31:22.076,-0.53,0.04,9.0,-0.01,-0.08,0.13
2025-12-17 14:31:22.099,-0.47,0.04,9.02,-0.01,-0.08,0.13
2025-12-17 14:31:22.122,-0.46,-0.02,9.16,-0.01,-0.08,0.13
2025-12-17 14:31:22.145,-0.47,-0.02,8.99,-0.01,-0.07,0.12
2025-12-17 14:31:22.168,-0.43,0.03,9.1,-0.0,-0.08,0.12
2025-12-17 14:31:22.191,-0.54,0.01,9.03,-0.01,-0.08,0.13
2025-12-17 14:31:22.214,-0.48,0.0,9.12,-0.0,-0.09,0.13
2025-12-17 14:31:22.236,-0.48,-0.02,8.96,-0.01,-0.08,0.12
2025-12-17 14:31:22.259,-0.46,-0.06,9.04,-0.0,-0.09,0.13
2025-12-17 14:31:22.282,-0.44,-0.01,8.98,-0.01,-0.08,0.13
2025-12-17 14:31:22.305,-0.58,-0.04,8.95,-0.01,-0.08,0.13
2025-12-17 14:31:22.328,-0.5,-0.05,8.96,-0.01,-0.08,0.13
2025-12-17 14:31:22.351,-0.52,0.02,9.06,-0.01,-0.08,0.13
2025-12-17 14:31:22.374,-0.53,0.02,9.04,-0.01,-0.08,0.13
2025-12-17 14:31:22.398,-0.46,0.01,8.95,-0.01,-0.08,0.13
2025-12-17 14:31:22.421,-0.53,0.02,8.98,-0.01,-0.08,0.13
2025-12-17 14:31:22.444,-0.5,0.03,9.01,-0.01,-0.08,0.13
2025-12-17 14:31:22.467,-0.45,0.01,9.06,-0.01,-0.08,0.13
2025-12-17 14:31:22.490,-0.54,0.03,9.01,-0.01,-0.08,0.13
2025-12-17 14:31:22.513,-0.53,0.02,8.96,-0.01,-0.08,0.13
2025-12-17 14:31:22.536,-0.46,0.01,9.1,-0.01,-0.08,0.13
2025-12-17 14:31:22.559,-0.5,-0.01,8.94,-0.01,-0.09,0.13
2025-12-17 14:31:22.582,-0.49,-0.05,9.02,-0.01,-0.08,0.13
2025-12-17 14:31:22.604,-0.44,-0.05,8.99,-0.01,-0.08,0.13
2025-12-17 14:31:22.627,-0.45,-0.06,9.03,-0.01,-0.08,0.13
2025-12-17 14:31:22.650,-0.56,-0.06,9.08,-0.01,-0.08,0.13
2025-12-17 14:31:22.673,-0.51,-0.02,9.0,0.0,-0.09,0.13
2025-12-17 14:31:22.696,-0.52,0.04,9.06,-0.01,-0.08,0.13
2025-12-17 14:31:22.719,-0.52,0.04,9.05,-0.01,-0.09,0.12
2025-12-17 14:31:22.742,-0.46,-0.04,9.03,-0.01,-0.07,0.12
2025-12-17 14:31:22.765,-0.52,-0.0,9.0,-0.0,-0.08,0.13
2025-12-17 14:31:22.789,-0.5,-0.0,8.95,-0.01,-0.08,0.13
2025-12-17 14:31:22.812,-0.52,0.01,9.0,-0.01,-0.08,0.12
2025-12-17 14:31:22.835,-0.52,-0.02,8.99,-0.0,-0.08,0.13
2025-12-17 14:31:22.858,-0.42,-0.04,9.04,-0.01,-0.08,0.13
2025-12-17 14:31:22.881,-0.53,0.02,9.17,-0.01,-0.08,0.13
2025-12-17 14:31:22.904,-0.51,-0.01,8.94,-0.01,-0.08,0.12
2025-12-17 14:31:22.927,-0.47,0.06,9.0,-0.01,-0.08,0.13
2025-12-17 14:31:22.950,-0.49,0.03,8.99,-0.01,-0.08,0.13
2025-12-17 14:31:22.972,-0.55,-0.02,8.97,-0.01,-0.08,0.13
2025-12-17 14:31:22.995,-0.51,-0.09,8.88,-0.01,-0.08,0.13
2025-12-17 14:31:23.018,-0.51,0.01,9.13,-0.01,-0.08,0.12
2025-12-17 14:31:23.041,-0.51,0.03,8.97,-0.01,-0.08,0.13
2025-12-17 14:31:23.064,-0.41,-0.03,9.0,-0.01,-0.08,0.13
2025-12-17 14:31:23.087,-0.45,-0.04,9.02,-0.01,-0.08,0.13
2025-12-17 14:31:23.110,-0.49,-0.02,8.98,-0.01,-0.08,0.13
2025-12-17 14:31:23.134,-0.54,-0.06,9.05,-0.01,-0.08,0.12
2025-12-17 14:31:23.157,-0.52,0.06,9.01,-0.01,-0.08,0.12
2025-12-17 14:31:23.180,-0.47,-0.05,9.0,-0.01,-0.08,0.13
2025-12-17 14:31:23.203,-0.47,-0.04,9.13,-0.01,-0.08,0.13
2025-12-17 14:31:23.226,-0.53,-0.05,9.0,-0.01,-0.08,0.13
2025-12-17 14:31:23.249,-0.51,-0.0,9.01,-0.01,-0.08,0.12
2025-12-17 14:31:23.272,-0.48,-0.03,9.08,-0.0,-0.09,0.13
2025-12-17 14:31:23.295,-0.56,-0.02,8.97,-0.01,-0.08,0.13
2025-12-17 14:31:23.318,-0.46,-0.02,9.0,-0.01,-0.09,0.13
2025-12-17 14:31:23.341,-0.53,-0.04,9.11,-0.01,-0.08,0.13
2025-12-17 14:31:23.363,-0.58,-0.03,9.11,-0.0,-0.08,0.13
2025-12-17 14:31:23.386,-0.5,0.01,9.0,-0.01,-0.07,0.12
2025-12-17 14:31:23.409,-0.56,0.02,8.93,-0.01,-0.08,0.13
2025-12-17 14:31:23.432,-0.46,-0.05,9.02,-0.01,-0.08,0.13
2025-12-17 14:31:23.455,-0.46,0.03,8.97,-0.01,-0.08,0.13
2025-12-17 14:31:23.478,-0.45,0.0,9.04,-0.01,-0.08,0.13
2025-12-17 14:31:23.502,-0.58,-0.03,9.08,-0.01,-0.08,0.12
2025-12-17 14:31:23.525,-0.53,-0.1,8.96,-0.0,-0.09,0.12
2025-12-17 14:31:23.548,-0.58,-0.06,9.03,-0.01,-0.08,0.13
2025-12-17 14:31:23.571,-0.52,-0.07,8.89,-0.01,-0.08,0.13
2025-12-17 14:31:23.594,-0.46,0.0,9.02,-0.01,-0.08,0.12
2025-12-17 14:31:23.617,-0.46,-0.0,8.94,-0.01,-0.08,0.13
2025-12-17 14:31:23.640,-0.53,0.03,8.99,-0.01,-0.08,0.13
2025-12-17 14:31:23.663,-0.5,0.05,8.99,-0.01,-0.08,0.13
2025-12-17 14:31:23.686,-0.43,0.01,8.99,-0.01,-0.08,0.13
2025-12-17 14:31:23.709,-0.43,0.02,8.93,-0.01,-0.08,0.13
2025-12-17 14:31:23.731,-0.5,0.0,9.05,-0.01,-0.08,0.12
2025-12-17 14:31:23.754,-0.53,-0.04,9.1,-0.01,-0.08,0.13
2025-12-17 14:31:23.778,-0.54,-0.05,8.94,-0.0,-0.09,0.13
2025-12-17 14:31:23.800,-0.52,-0.08,9.03,-0.01,-0.08,0.13
2025-12-17 14:31:23.824,-0.47,-0.04,9.04,-0.01,-0.08,0.13
2025-12-17 14:31:23.847,-0.48,0.05,8.96,-0.01,-0.08,0.13
2025-12-17 14:31:23.870,-0.46,-0.03,8.99,-0.01,-0.08,0.13
2025-12-17 14:31:23.893,-0.52,0.01,9.05,-0.01,-0.08,0.13
2025-12-17 14:31:23.916,-0.49,-0.05,8.93,-0.01,-0.08,0.13
2025-12-17 14:31:23.939,-0.5,-0.06,8.97,-0.01,-0.08,0.13
2025-12-17 14:31:23.962,-0.53,0.01,9.07,-0.01,-0.08,0.13
2025-12-17 14:31:23.985,-0.48,-0.11,9.05,-0.01,-0.08,0.13
2025-12-17 14:31:24.008,-0.49,0.0,8.92,-0.01,-0.08,0.13
2025-12-17 14:31:24.031,-0.51,0.03,9.15,-0.01,-0.07,0.13
2025-12-17 14:31:24.054,-0.55,-0.09,8.84,-0.02,-0.09,0.13
2025-12-17 14:31:24.077,-0.56,-0.06,9.19,-0.02,-0.07,0.12
2025-12-17 14:31:24.100,-0.58,-0.02,8.88,-0.01,-0.08,0.13
2025-12-17 14:31:24.123,-0.44,-0.01,9.17,-0.01,-0.07,0.13
2025-12-17 14:31:24.146,-0.52,0.0,8.88,-0.01,-0.08,0.13
2025-12-17 14:31:24.169,-0.5,0.03,9.1,-0.01,-0.08,0.13
2025-12-17 14:31:24.192,-0.49,0.03,9.01,-0.01,-0.08,0.13
2025-12-17 14:31:24.214,-0.54,0.02,9.05,-0.01,-0.09,0.13
2025-12-17 14:31:24.237,-0.5,-0.04,8.95,-0.01,-0.09,0.13
2025-12-17 14:31:24.260,-0.5,-0.03,9.07,-0.01,-0.08,0.13
2025-12-17 14:31:24.283,-0.48,0.01,8.99,-0.01,-0.08,0.13
2025-12-17 14:31:24.306,-0.54,-0.05,9.09,-0.01,-0.09,0.13
2025-12-17 14:31:24.329,-0.47,-0.02,8.96,-0.01,-0.07,0.13
2025-12-17 14:31:24.352,-0.49,0.0,9.08,0.01,-0.09,0.13
2025-12-17 14:31:24.376,-0.54,0.07,9.04,-0.01,-0.08,0.13
2025-12-17 14:31:24.399,-0.49,0.0,9.03,-0.01,-0.1,0.13
2025-12-17 14:31:24.422,-0.52,-0.08,8.98,-0.01,-0.08,0.13
2025-12-17 14:31:24.445,-0.58,0.02,8.97,-0.0,-0.09,0.13
2025-12-17 14:31:24.467,-0.48,-0.01,8.97,-0.01,-0.07,0.12
2025-12-17 14:31:24.490,-0.48,-0.06,9.07,-0.01,-0.08,0.13
2025-12-17 14:31:24.513,-0.49,-0.03,8.98,-0.01,-0.08,0.13
2025-12-17 14:31:24.536,-0.54,-0.02,8.98,-0.01,-0.08,0.13
2025-12-17 14:31:24.560,-0.48,-0.05,8.98,-0.01,-0.08,0.13
2025-12-17 14:31:24.583,-0.47,-0.05,8.93,-0.01,-0.07,0.12
2025-12-17 14:31:24.605,-0.63,0.11,9.2,-0.01,-0.07,0.12
2025-12-17 14:31:24.628,-0.53,-0.09,8.73,-0.02,-0.1,0.13
2025-12-17 14:31:24.651,-0.52,0.01,9.04,-0.01,-0.07,0.13
2025-12-17 14:31:24.674,-0.53,-0.09,8.93,-0.0,-0.08,0.13
2025-12-17 14:31:24.698,-0.46,-0.0,9.15,-0.01,-0.07,0.13
2025-12-17 14:31:24.721,-0.54,0.0,8.83,-0.01,-0.08,0.13
2025-12-17 14:31:24.744,-0.41,0.0,9.16,-0.01,-0.08,0.13
2025-12-17 14:31:24.767,-0.44,-0.01,8.88,-0.0,-0.08,0.13
2025-12-17 14:31:24.791,-0.51,-0.03,9.12,-0.01,-0.09,0.13
2025-12-17 14:31:24.813,-0.5,-0.03,8.91,-0.01,-0.08,0.13
2025-12-17 14:31:24.836,-0.49,-0.09,9.03,-0.01,-0.08,0.13
2025-12-17 14:31:24.859,-0.49,-0.01,8.95,-0.01,-0.08,0.12
2025-12-17 14:31:24.882,-0.51,0.04,9.14,-0.01,-0.08,0.12
2025-12-17 14:31:24.905,-0.54,-0.05,8.87,-0.02,-0.07,0.12
2025-12-17 14:31:24.928,-0.41,0.04,9.06,-0.0,-0.08,0.13
2025-12-17 14:31:24.951,-0.53,0.0,8.91,-0.01,-0.09,0.13
2025-12-17 14:31:24.974,-0.38,-0.03,9.07,-0.0,-0.12,0.12
2025-12-17 14:31:24.997,-0.65,-0.0,9.08,0.01,-0.1,0.13
2025-12-17 14:31:25.020,-0.54,-0.01,9.09,0.01,-0.1,0.13
2025-12-17 14:31:25.043,-0.47,-0.08,8.88,-0.01,-0.09,0.13
2025-12-17 14:31:25.066,-0.53,-0.08,8.84,-0.0,-0.07,0.13
2025-12-17 14:31:25.089,-0.74,-0.06,9.0,-0.03,-0.1,0.12
2025-12-17 14:31:25.111,-0.53,0.11,9.2,-0.01,-0.04,0.13
2025-12-17 14:31:25.134,-0.38,-0.06,8.8,-0.02,-0.04,0.12
2025-12-17 14:31:25.157,-0.62,-0.01,9.44,-0.03,-0.09,0.13
2025-12-17 14:31:25.180,0.02,-0.27,8.71,0.05,-0.11,0.14
2025-12-17 14:31:25.203,-0.61,0.0,9.38,0.03,-0.14,0.12
2025-12-17 14:31:25.226,-0.63,0.02,9.22,0.02,-0.12,0.14
2025-12-17 14:31:25.250,-0.45,-0.01,8.89,-0.0,-0.11,0.13
2025-12-17 14:31:25.273,-0.57,-0.07,8.81,0.0,-0.09,0.13
2025-12-17 14:31:25.296,-0.52,-0.01,8.91,-0.01,-0.07,0.13
2025-12-17 14:31:25.319,-0.5,0.03,9.0,-0.01,-0.08,0.13
2025-12-17 14:31:25.342,-0.57,-0.01,9.11,-0.01,-0.08,0.13
2025-12-17 14:31:25.365,-0.53,-0.14,8.91,-0.0,-0.08,0.12
2025-12-17 14:31:25.388,-0.47,-0.02,9.09,-0.0,-0.08,0.13
2025-12-17 14:31:25.411,-0.48,-0.04,8.94,-0.0,-0.08,0.13
2025-12-17 14:31:25.433,-1.07,0.0,9.14,-0.01,-0.2,0.12
2025-12-17 14:31:25.456,-0.65,-0.44,7.59,-0.04,0.03,0.11
2025-12-17 14:31:25.479,-0.59,-0.31,8.71,-0.05,-0.11,0.11
2025-12-17 14:31:25.502,-0.68,0.02,9.17,-0.05,0.01,0.12
2025-12-17 14:31:25.525,-0.57,0.03,9.14,-0.02,-0.06,0.12
2025-12-17 14:31:25.549,-0.58,-0.07,9.21,-0.02,-0.06,0.13
2025-12-17 14:31:25.572,-0.42,-0.09,8.77,0.0,-0.11,0.13
2025-12-17 14:31:25.595,-0.62,0.1,9.12,-0.01,-0.07,0.13
2025-12-17 14:31:25.618,-0.46,0.04,8.86,-0.01,-0.08,0.12
2025-12-17 14:31:25.641,-0.38,-0.05,9.13,-0.02,-0.06,0.13
2025-12-17 14:31:25.664,-0.56,-0.04,8.85,-0.01,-0.08,0.13
2025-12-17 14:31:25.687,-0.46,0.04,9.13,-0.01,-0.08,0.13
2025-12-17 14:31:25.710,-0.76,0.15,9.15,-0.04,-0.05,0.12
2025-12-17 14:31:25.733,-0.31,-0.11,8.84,-0.03,-0.05,0.13
2025-12-17 14:31:25.756,-0.41,0.07,9.28,-0.01,-0.06,0.13
2025-12-17 14:31:25.778,-0.24,0.03,9.1,-0.0,-0.06,0.13
2025-12-17 14:31:25.801,-0.52,0.03,9.05,-0.01,-0.09,0.12
2025-12-17 14:31:25.824,-0.72,-0.08,9.24,-0.0,-0.09,0.13
2025-12-17 14:31:25.847,-0.45,-0.0,8.97,0.0,-0.09,0.13
2025-12-17 14:31:25.870,-0.32,-0.02,9.14,-0.01,-0.08,0.13
2025-12-17 14:31:25.894,-0.46,-0.09,9.01,-0.0,-0.07,0.13
2025-12-17 14:31:25.917,-0.51,-0.04,9.09,-0.01,-0.09,0.13
2025-12-17 14:31:25.940,-0.53,0.03,9.08,-0.0,-0.08,0.13
2025-12-17 14:31:25.963,-0.49,0.1,8.98,-0.0,-0.09,0.13
2025-12-17 14:31:25.986,-0.4,0.06,9.04,-0.01,-0.09,0.12
2025-12-17 14:31:26.009,-0.46,-0.02,9.04,-0.01,-0.09,0.13
2025-12-17 14:31:26.032,-0.54,0.0,9.07,-0.01,-0.09,0.13
2025-12-17 14:31:26.055,-0.42,0.02,9.08,-0.01,-0.09,0.13
2025-12-17 14:31:26.078,-0.45,-0.02,9.01,-0.01,-0.08,0.13
2025-12-17 14:31:26.101,-0.7,-0.14,8.93,-0.01,-0.08,0.13
2025-12-17 14:31:26.124,-0.51,-0.07,9.09,-0.01,-0.07,0.13
2025-12-17 14:31:26.146,-0.47,-0.02,8.9,-0.01,-0.08,0.13
2025-12-17 14:31:26.169,-0.54,-0.04,9.04,-0.01,-0.08,0.12
2025-12-17 14:31:26.192,-0.53,-0.04,8.92,-0.01,-0.08,0.13
2025-12-17 14:31:26.216,-0.51,0.0,8.91,-0.0,-0.06,0.13
2025-12-17 14:31:26.239,-0.64,0.07,9.55,-0.02,-0.1,0.12
2025-12-17 14:31:26.262,-0.39,-0.08,8.71,-0.0,-0.08,0.13
2025-12-17 14:31:26.285,-0.6,0.0,9.17,-0.01,-0.09,0.13
2025-12-17 14:31:26.307,-0.47,0.0,9.0,-0.01,-0.07,0.13
2025-12-17 14:31:26.330,-0.44,0.12,8.99,-0.01,-0.08,0.12
2025-12-17 14:31:26.354,-0.59,0.08,9.72,-0.01,-0.12,0.13
2025-12-17 14:31:26.377,-0.46,0.0,8.97,0.01,-0.08,0.13
2025-12-17 14:31:26.400,-0.56,-0.02,9.15,-0.01,-0.09,0.13
2025-12-17 14:31:26.423,-0.46,0.01,8.88,-0.0,-0.08,0.13
2025-12-17 14:31:26.446,-0.54,0.01,8.93,-0.01,-0.08,0.12
2025-12-17 14:31:26.468,-0.7,-0.13,9.03,-0.01,-0.08,0.13
2025-12-17 14:31:26.491,-0.5,-0.04,9.01,-0.01,-0.07,0.13
2025-12-17 14:31:26.514,-0.55,0.01,8.95,-0.01,-0.08,0.12
2025-12-17 14:31:26.538,-0.53,-0.01,9.08,-0.01,-0.08,0.13
2025-12-17 14:31:26.561,-0.49,-0.05,9.02,-0.01,-0.08,0.13
2025-12-17 14:31:26.584,-0.46,-0.02,9.0,-0.01,-0.09,0.13
2025-12-17 14:31:26.607,-0.45,-0.01,9.08,-0.0,-0.08,0.13
2025-12-17 14:31:26.630,-0.45,0.0,9.04,-0.01,-0.08,0.13
2025-12-17 14:31:26.653,-0.49,-0.01,9.08,-0.01,-0.08,0.13
2025-12-17 14:31:26.676,-0.53,-0.02,9.03,-0.0,-0.08,0.13
2025-12-17 14:31:26.699,-0.47,-0.05,9.04,-0.01,-0.07,0.13
2025-12-17 14:31:26.722,-0.49,0.02,8.99,-0.0,-0.08,0.13
2025-12-17 14:31:26.745,-0.56,-0.01,9.02,-0.01,-0.08,0.13
2025-12-17 14:31:26.768,-0.53,-0.03,9.01,-0.01,-0.09,0.13
2025-12-17 14:31:26.791,-0.54,-0.11,9.01,-0.0,-0.08,0.13
2025-12-17 14:31:26.813,-0.51,-0.04,8.93,-0.01,-0.09,0.13
2025-12-17 14:31:26.836,-0.47,0.02,9.0,-0.01,-0.08,0.13
2025-12-17 14:31:26.859,-0.48,0.01,9.05,-0.01,-0.08,0.13
2025-12-17 14:31:26.882,-0.52,0.05,8.96,-0.01,-0.08,0.12
2025-12-17 14:31:26.905,-0.4,-0.03,9.05,-0.01,-0.09,0.13
2025-12-17 14:31:26.928,-0.51,0.07,9.07,-0.0,-0.07,0.13
2025-12-17 14:31:26.951,-0.36,0.0,8.97,-0.0,-0.08,0.12
2025-12-17 14:31:26.975,-0.43,0.04,8.87,-0.02,-0.05,0.13
2025-12-17 14:31:26.997,-0.5,0.12,9.11,-0.02,-0.06,0.12
2025-12-17 14:31:27.020,-0.64,-0.06,8.96,-0.01,-0.07,0.13
2025-12-17 14:31:27.044,-0.54,0.02,9.08,-0.0,-0.09,0.13
2025-12-17 14:31:27.067,-0.57,-0.07,8.92,-0.01,-0.09,0.13
2025-12-17 14:31:27.089,-0.55,-0.04,9.03,-0.01,-0.1,0.13
2025-12-17 14:31:27.112,-0.5,-0.07,8.96,-0.01,-0.09,0.13
2025-12-17 14:31:27.135,-0.45,-0.01,9.09,-0.01,-0.09,0.13
2025-12-17 14:31:27.158,-0.43,0.01,8.99,-0.01,-0.09,0.12
2025-12-17 14:31:27.181,-0.36,0.0,9.04,-0.0,-0.09,0.12
2025-12-17 14:31:27.204,-0.44,0.02,9.04,-0.01,-0.09,0.12
2025-12-17 14:31:27.227,-0.48,0.1,9.0,-0.01,-0.1,0.13
2025-12-17 14:31:27.251,-0.45,0.1,8.91,-0.01,-0.09,0.13
2025-12-17 14:31:27.274,-0.57,-0.03,9.07,-0.01,-0.1,0.13
2025-12-17 14:31:27.297,-0.41,-0.08,9.06,-0.01,-0.08,0.13
2025-12-17 14:31:27.320,-0.45,-0.14,8.99,-0.01,-0.08,0.12
2025-12-17 14:31:27.343,-0.6,-0.18,9.07,-0.01,-0.08,0.13
2025-12-17 14:31:27.366,-0.33,-0.13,8.85,-0.01,-0.07,0.13
2025-12-17 14:31:27.389,-0.5,-0.23,8.84,-0.0,-0.09,0.12
2025-12-17 14:31:27.411,-0.47,-0.11,8.96,-0.01,-0.1,0.13
2025-12-17 14:31:27.434,-0.5,-0.05,9.02,-0.01,-0.09,0.13
2025-12-17 14:31:27.457,-0.41,0.02,8.99,-0.0,-0.08,0.13
2025-12-17 14:31:27.480,-0.48,0.05,8.85,-0.0,-0.07,0.13
2025-12-17 14:31:27.503,-0.65,0.18,9.07,-0.01,-0.1,0.13
2025-12-17 14:31:27.526,-0.38,0.09,8.98,-0.01,-0.08,0.13
2025-12-17 14:31:27.550,-0.4,0.1,9.16,-0.0,-0.09,0.13
2025-12-17 14:31:27.573,-0.41,0.07,9.04,-0.0,-0.09,0.13
2025-12-17 14:31:27.596,-0.4,0.05,9.04,-0.01,-0.08,0.13
2025-12-17 14:31:27.619,-0.55,-0.01,8.96,-0.0,-0.07,0.13
2025-12-17 14:31:27.642,-0.57,-0.07,8.94,-0.01,-0.08,0.13
2025-12-17 14:31:27.665,-0.61,-0.09,9.04,-0.01,-0.08,0.13
2025-12-17 14:31:27.688,-0.57,-0.15,9.08,-0.01,-0.08,0.12
2025-12-17 14:31:27.711,-0.55,-0.13,9.05,-0.0,-0.08,0.13
2025-12-17 14:31:27.734,-0.48,-0.11,9.0,-0.0,-0.08,0.13
2025-12-17 14:31:27.757,-0.51,-0.02,9.0,-0.0,-0.08,0.13
2025-12-17 14:31:27.780,-0.51,-0.06,9.01,-0.0,-0.09,0.13
2025-12-17 14:31:27.802,-0.53,-0.06,9.02,-0.01,-0.09,0.13
2025-12-17 14:31:27.825,-0.42,0.02,8.98,-0.01,-0.08,0.13
2025-12-17 14:31:27.848,-0.39,0.02,8.96,-0.01,-0.08,0.13
2025-12-17 14:31:27.871,-0.4,0.06,9.09,-0.01,-0.08,0.12
2025-12-17 14:31:27.895,-0.36,0.05,9.06,-0.0,-0.08,0.13
2025-12-17 14:31:27.918,-0.54,0.08,9.02,-0.01,-0.08,0.13
2025-12-17 14:31:27.941,-0.48,0.02,9.04,-0.01,-0.08,0.13
2025-12-17 14:31:27.964,-0.42,0.01,8.95,-0.01,-0.08,0.13
2025-12-17 14:31:27.987,-0.51,-0.05,8.99,-0.01,-0.08,0.13
2025-12-17 14:31:28.010,-0.55,-0.08,9.06,-0.01,-0.08,0.12
2025-12-17 14:31:28.032,-0.52,-0.1,9.05,-0.01,-0.09,0.12
2025-12-17 14:31:28.055,-0.54,-0.1,8.98,-0.0,-0.08,0.13
2025-12-17 14:31:28.078,-0.59,-0.15,9.0,-0.01,-0.08,0.12
2025-12-17 14:31:28.101,-0.51,-0.14,9.05,-0.01,-0.08,0.13
2025-12-17 14:31:28.124,-0.45,-0.05,9.08,0.0,-0.08,0.13
2025-12-17 14:31:28.148,-0.4,0.06,8.95,-0.01,-0.05,0.13
2025-12-17 14:31:28.170,-0.46,0.11,9.14,-0.03,-0.06,0.12
2025-12-17 14:31:28.194,-0.34,0.08,8.93,-0.02,-0.07,0.12
2025-12-17 14:31:28.217,-0.36,0.17,9.04,-0.01,-0.08,0.13
2025-12-17 14:31:28.240,-0.47,0.16,8.99,-0.01,-0.08,0.13
2025-12-17 14:31:28.263,-0.5,0.15,9.01,-0.01,-0.09,0.13
2025-12-17 14:31:28.286,-0.5,0.03,8.96,-0.01,-0.09,0.13
2025-12-17 14:31:28.309,-0.53,0.05,8.95,-0.01,-0.08,0.13
2025-12-17 14:31:28.332,-0.52,-0.05,8.93,-0.01,-0.08,0.13
2025-12-17 14:31:28.355,-0.45,-0.2,9.03,-0.01,-0.08,0.13
2025-12-17 14:31:28.378,-0.54,-0.17,9.03,-0.01,-0.08,0.13
2025-12-17 14:31:28.400,-0.52,-0.07,9.03,-0.01,-0.08,0.13
2025-12-17 14:31:28.423,-0.54,-0.12,9.0,-0.01,-0.08,0.13
2025-12-17 14:31:28.446,-0.5,-0.1,9.1,-0.01,-0.08,0.13
2025-12-17 14:31:28.470,-0.57,-0.07,9.03,-0.01,-0.08,0.13
2025-12-17 14:31:28.492,-0.49,-0.01,9.11,-0.01,-0.08,0.13
2025-12-17 14:31:28.515,-0.43,0.02,8.98,-0.01,-0.08,0.13
2025-12-17 14:31:28.539,-0.38,0.1,8.92,-0.01,-0.08,0.13
2025-12-17 14:31:28.562,-0.46,0.15,9.05,-0.01,-0.08,0.13
2025-12-17 14:31:28.585,-0.46,0.09,8.9,-0.01,-0.08,0.13
2025-12-17 14:31:28.608,-0.41,0.12,8.98,-0.01,-0.08,0.13
2025-12-17 14:31:28.631,-0.47,0.08,9.12,-0.01,-0.08,0.13
2025-12-17 14:31:28.654,-0.49,-0.07,9.1,-0.01,-0.08,0.13
2025-12-17 14:31:28.677,-0.46,-0.12,9.08,0.01,-0.09,0.13
2025-12-17 14:31:28.700,-0.55,-0.12,9.0,-0.0,-0.09,0.13
2025-12-17 14:31:28.723,-0.55,-0.14,9.05,-0.0,-0.09,0.12
2025-12-17 14:31:28.746,-0.53,-0.08,9.0,-0.01,-0.08,0.13
2025-12-17 14:31:28.769,-0.59,-0.04,9.03,-0.0,-0.08,0.13
2025-12-17 14:31:28.792,-0.5,-0.01,9.06,-0.01,-0.08,0.13
2025-12-17 14:31:28.815,-0.49,-0.03,9.05,-0.01,-0.08,0.13
2025-12-17 14:31:28.837,-0.59,0.05,9.06,-0.01,-0.08,0.13
2025-12-17 14:31:28.861,-0.44,0.05,9.07,-0.0,-0.08,0.13
2025-12-17 14:31:28.884,-0.45,0.12,8.96,-0.01,-0.08,0.12
2025-12-17 14:31:28.907,-0.47,0.09,9.03,-0.01,-0.09,0.12
2025-12-17 14:31:28.930,-0.47,0.07,9.08,-0.01,-0.09,0.13
2025-12-17 14:31:28.953,-0.45,0.02,9.06,-0.0,-0.09,0.13
2025-12-17 14:31:28.976,-0.47,-0.07,8.95,-0.0,-0.08,0.12
2025-12-17 14:31:28.999,-0.46,0.01,9.09,-0.01,-0.08,0.12
2025-12-17 14:31:29.022,-0.49,-0.08,8.98,-0.0,-0.08,0.12
2025-12-17 14:31:29.044,-0.52,-0.05,8.98,-0.01,-0.08,0.13
2025-12-17 14:31:29.067,-0.53,-0.06,9.03,-0.01,-0.08,0.13
2025-12-17 14:31:29.090,-0.58,-0.09,8.99,-0.01,-0.08,0.12
2025-12-17 14:31:29.113,-0.51,-0.08,9.03,-0.01,-0.08,0.13
2025-12-17 14:31:29.137,-0.4,-0.02,9.08,-0.01,-0.08,0.13
2025-12-17 14:31:29.160,-0.44,-0.02,8.99,-0.01,-0.08,0.12
2025-12-17 14:31:29.183,-0.46,0.04,9.02,-0.0,-0.08,0.13
2025-12-17 14:31:29.206,-0.38,0.07,9.04,-0.01,-0.08,0.13
2025-12-17 14:31:29.229,-0.44,0.04,9.01,-0.01,-0.08,0.12
2025-12-17 14:31:29.252,-0.48,0.07,9.02,-0.01,-0.08,0.13
2025-12-17 14:31:29.275,-0.38,-0.01,9.04,-0.01,-0.08,0.13
2025-12-17 14:31:29.298,-0.38,0.0,8.98,-0.01,-0.07,0.12
2025-12-17 14:31:29.321,-0.54,-0.04,9.0,-0.01,-0.08,0.12
2025-12-17 14:31:29.344,-0.54,-0.04,8.99,-0.01,-0.08,0.13
2025-12-17 14:31:29.367,-0.59,-0.09,9.04,-0.01,-0.08,0.13
2025-12-17 14:31:29.390,-0.51,-0.02,9.04,-0.01,-0.08,0.13
2025-12-17 14:31:29.413,-0.43,-0.09,8.99,-0.01,-0.09,0.13
2025-12-17 14:31:29.435,-0.44,-0.06,9.12,-0.01,-0.09,0.13
2025-12-17 14:31:29.458,-0.49,0.05,8.96,-0.01,-0.08,0.13
2025-12-17 14:31:29.481,-0.55,0.01,9.12,-0.01,-0.08,0.13
2025-12-17 14:31:29.504,-0.45,-0.06,9.03,-0.01,-0.08,0.13
2025-12-17 14:31:29.528,-0.55,-0.05,9.05,-0.01,-0.08,0.13
2025-12-17 14:31:29.550,-0.43,0.01,9.03,-0.01,-0.08,0.13
2025-12-17 14:31:29.574,-0.47,0.01,9.0,-0.01,-0.08,0.13
2025-12-17 14:31:29.597,-0.45,0.03,9.07,-0.01,-0.08,0.12
2025-12-17 14:31:29.620,-0.51,0.08,8.99,-0.01,-0.08,0.13
2025-12-17 14:31:29.643,-0.54,0.06,9.0,-0.01,-0.08,0.13
2025-12-17 14:31:29.666,-0.51,0.03,8.94,-0.01,-0.08,0.13
2025-12-17 14:31:29.689,-0.54,-0.04,8.97,-0.01,-0.09,0.12
2025-12-17 14:31:29.712,-0.44,-0.05,9.0,-0.01,-0.08,0.13
2025-12-17 14:31:29.735,-0.5,0.0,9.05,-0.01,-0.08,0.13
2025-12-17 14:31:29.758,-0.46,-0.1,9.06,-0.01,-0.09,0.13
2025-12-17 14:31:29.780,-0.43,-0.09,9.04,-0.0,-0.08,0.13
2025-12-17 14:31:29.804,-0.41,-0.03,9.09,-0.0,-0.08,0.13
2025-12-17 14:31:29.827,-0.47,0.01,9.0,-0.0,-0.08,0.13
2025-12-17 14:31:29.850,-0.4,-0.01,9.05,-0.01,-0.08,0.13
2025-12-17 14:31:29.873,-0.42,0.05,8.97,-0.0,-0.07,0.12
2025-12-17 14:31:29.896,-0.6,-0.02,9.02,-0.01,-0.08,0.13
2025-12-17 14:31:29.919,-0.49,0.04,8.99,-0.01,-0.08,0.13
2025-12-17 14:31:29.942,-0.56,0.01,9.04,-0.01,-0.08,0.12
2025-12-17 14:31:29.965,-0.51,0.01,8.96,-0.01,-0.09,0.13
2025-12-17 14:31:29.988,-0.44,-0.05,9.03,-0.01,-0.09,0.12
2025-12-17 14:31:30.010,-0.47,-0.01,9.08,-0.01,-0.09,0.12
2025-12-17 14:31:30.033,-0.38,0.03,9.04,-0.01,-0.08,0.12
2025-12-17 14:31:30.057,-0.41,-0.05,9.05,-0.0,-0.08,0.13
2025-12-17 14:31:30.080,-0.4,-0.08,8.9,0.0,-0.07,0.12
2025-12-17 14:31:30.103,-0.45,-0.02,9.15,-0.0,-0.09,0.13
2025-12-17 14:31:30.126,-0.48,-0.04,8.94,-0.0,-0.08,0.13
2025-12-17 14:31:30.149,-0.48,-0.05,9.07,-0.0,-0.08,0.13
2025-12-17 14:31:30.172,-0.57,0.02,8.95,-0.01,-0.07,0.13
2025-12-17 14:31:30.195,-0.61,0.02,8.99,-0.01,-0.08,0.13
2025-12-17 14:31:30.218,-0.48,0.06,9.05,-0.01,-0.08,0.13
2025-12-17 14:31:30.241,-0.53,0.01,9.02,-0.01,-0.08,0.13
2025-12-17 14:31:30.264,-0.5,0.09,8.94,-0.01,-0.09,0.13
2025-12-17 14:31:30.287,-0.43,0.08,9.1,-0.01,-0.09,0.12
2025-12-17 14:31:30.310,-0.47,-0.01,9.03,-0.01,-0.09,0.12
2025-12-17 14:31:30.333,-0.5,-0.06,9.14,-0.01,-0.09,0.13
2025-12-17 14:31:30.355,-0.47,-0.11,9.08,-0.01,-0.07,0.13
2025-12-17 14:31:30.378,-0.44,-0.03,9.06,-0.01,-0.07,0.12
2025-12-17 14:31:30.401,-0.4,-0.09,8.98,-0.01,-0.07,0.13
2025-12-17 14:31:30.425,-0.44,-0.07,8.97,-0.0,-0.08,0.13
2025-12-17 14:31:30.448,-0.51,-0.02,9.0,-0.0,-0.08,0.13
2025-12-17 14:31:30.471,-0.52,0.04,8.97,-0.01,-0.08,0.13
2025-12-17 14:31:30.494,-0.55,0.04,9.02,-0.01,-0.08,0.13
2025-12-17 14:31:30.517,-0.52,0.03,8.94,-0.01,-0.08,0.13
2025-12-17 14:31:30.540,-0.5,0.01,8.97,-0.01,-0.08,0.13
2025-12-17 14:31:30.563,-0.47,0.02,9.05,-0.01,-0.09,0.13
2025-12-17 14:31:30.586,-0.44,0.02,9.01,-0.01,-0.09,0.12
2025-12-17 14:31:30.609,-0.5,0.07,8.97,-0.01,-0.09,0.12
2025-12-17 14:31:30.632,-0.4,-0.03,9.06,-0.01,-0.09,0.12
2025-12-17 14:31:30.655,-0.37,-0.06,9.17,-0.01,-0.08,0.13
2025-12-17 14:31:30.678,-0.37,-0.05,9.07,-0.01,-0.07,0.13
2025-12-17 14:31:30.701,-0.5,-0.09,8.98,-0.01,-0.07,0.13
2025-12-17 14:31:30.723,-0.43,-0.04,9.0,-0.01,-0.07,0.13
2025-12-17 14:31:30.746,-0.57,-0.02,8.93,-0.01,-0.07,0.13
2025-12-17 14:31:30.769,-0.6,0.05,8.94,-0.0,-0.08,0.13
2025-12-17 14:31:30.793,-0.53,-0.04,9.04,-0.01,-0.08,0.12
2025-12-17 14:31:30.816,-0.47,-0.02,8.95,-0.01,-0.09,0.13
2025-12-17 14:31:30.839,-0.49,0.01,8.98,-0.01,-0.09,0.13
2025-12-17 14:31:30.862,-0.48,-0.01,8.98,-0.01,-0.09,0.13
2025-12-17 14:31:30.885,-0.45,-0.12,9.0,-0.01,-0.08,0.12
2025-12-17 14:31:30.908,-0.45,-0.12,9.06,-0.01,-0.08,0.12
2025-12-17 14:31:30.931,-0.45,-0.01,9.11,-0.01,-0.09,0.12
2025-12-17 14:31:30.954,-0.43,-0.06,9.04,-0.01,-0.08,0.13
2025-12-17 14:31:30.977,-0.42,0.01,8.99,0.0,-0.08,0.13
2025-12-17 14:31:31.000,-0.52,-0.05,9.08,-0.0,-0.08,0.13
2025-12-17 14:31:31.023,-0.45,0.03,8.93,-0.0,-0.08,0.12
2025-12-17 14:31:31.046,-0.62,0.04,8.99,-0.0,-0.08,0.13
2025-12-17 14:31:31.069,-0.57,0.01,8.92,-0.01,-0.08,0.12
2025-12-17 14:31:31.091,-0.53,0.03,8.93,-0.01,-0.08,0.13
2025-12-17 14:31:31.114,-0.5,0.02,8.97,-0.01,-0.08,0.13
2025-12-17 14:31:31.137,-0.45,0.02,9.06,-0.01,-0.08,0.13
2025-12-17 14:31:31.161,-0.43,-0.01,8.93,-0.01,-0.09,0.13
2025-12-17 14:31:31.184,-0.41,-0.07,8.95,-0.01,-0.08,0.13
2025-12-17 14:31:31.207,-0.44,-0.02,9.06,-0.01,-0.08,0.12
2025-12-17 14:31:31.230,-0.47,-0.06,8.99,-0.01,-0.08,0.12
2025-12-17 14:31:31.253,-0.49,-0.06,9.12,-0.01,-0.07,0.13
2025-12-17 14:31:31.276,-0.48,-0.09,9.0,-0.01,-0.07,0.13
2025-12-17 14:31:31.299,-0.45,0.01,8.99,-0.01,-0.07,0.13
2025-12-17 14:31:31.322,-0.54,0.01,9.01,-0.01,-0.07,0.13
2025-12-17 14:31:31.345,-0.58,-0.04,8.99,-0.01,-0.08,0.12
2025-12-17 14:31:31.368,-0.57,0.01,9.02,-0.01,-0.08,0.13
2025-12-17 14:31:31.390,-0.58,0.0,8.96,-0.01,-0.09,0.13
2025-12-17 14:31:31.413,-0.48,0.0,9.01,-0.01,-0.09,0.12
2025-12-17 14:31:31.437,-0.47,0.02,9.01,-0.01,-0.09,0.13
2025-12-17 14:31:31.460,-0.51,-0.02,9.02,-0.01,-0.09,0.13
2025-12-17 14:31:31.483,-0.42,-0.01,9.06,-0.01,-0.08,0.13
2025-12-17 14:31:31.506,-0.42,-0.08,8.98,-0.01,-0.08,0.13
2025-12-17 14:31:31.529,-0.39,-0.08,8.94,-0.01,-0.08,0.13
2025-12-17 14:31:31.552,-0.52,-0.05,9.02,-0.01,-0.07,0.13
2025-12-17 14:31:31.575,-0.49,0.0,9.06,-0.01,-0.07,0.12
2025-12-17 14:31:31.598,-0.52,-0.03,9.0,-0.0,-0.07,0.13
2025-12-17 14:31:31.621,-0.54,-0.0,8.96,-0.01,-0.08,0.13
2025-12-17 14:31:31.644,-0.58,0.06,8.93,-0.01,-0.08,0.13
2025-12-17 14:31:31.667,-0.54,0.04,8.99,-0.01,-0.09,0.13
2025-12-17 14:31:31.690,-0.55,-0.01,9.05,-0.01,-0.09,0.13
2025-12-17 14:31:31.713,-0.49,-0.01,8.98,-0.01,-0.09,0.13
2025-12-17 14:31:31.736,-0.35,-0.02,9.06,-0.01,-0.09,0.12
2025-12-17 14:31:31.759,-0.39,-0.1,9.1,-0.01,-0.08,0.13
2025-12-17 14:31:31.782,-0.41,-0.07,9.08,-0.01,-0.08,0.13
2025-12-17 14:31:31.805,-0.42,-0.05,9.04,-0.01,-0.08,0.13
2025-12-17 14:31:31.828,-0.46,-0.08,9.06,-0.01,-0.08,0.13
2025-12-17 14:31:31.851,-0.48,-0.11,9.01,-0.01,-0.07,0.13
2025-12-17 14:31:31.874,-0.53,-0.04,9.06,-0.0,-0.07,0.13
2025-12-17 14:31:31.897,-0.53,-0.01,8.94,-0.01,-0.08,0.13
2025-12-17 14:31:31.920,-0.57,0.03,9.04,-0.01,-0.08,0.13
2025-12-17 14:31:31.943,-0.52,0.02,8.93,-0.01,-0.08,0.13
2025-12-17 14:31:31.966,-0.57,0.01,8.99,-0.01,-0.08,0.13
2025-12-17 14:31:31.989,-0.54,-0.03,9.05,-0.01,-0.08,0.13
2025-12-17 14:31:32.012,-0.45,-0.05,9.05,-0.01,-0.08,0.13
2025-12-17 14:31:32.035,-0.49,-0.01,8.98,-0.01,-0.08,0.13
2025-12-17 14:31:32.058,-0.44,-0.07,9.0,-0.01,-0.08,0.13
2025-12-17 14:31:32.081,-0.38,-0.06,9.03,-0.0,-0.08,0.12
2025-12-17 14:31:32.104,-0.43,0.0,8.98,-0.01,-0.08,0.13
2025-12-17 14:31:32.127,-0.41,-0.01,8.91,-0.01,-0.08,0.12
2025-12-17 14:31:32.150,-0.46,-0.04,9.0,-0.01,-0.08,0.13
2025-12-17 14:31:32.173,-0.56,0.03,8.98,-0.01,-0.08,0.13
2025-12-17 14:31:32.195,-0.54,0.01,9.04,-0.01,-0.08,0.13
2025-12-17 14:31:32.219,-0.51,-0.05,9.02,-0.01,-0.08,0.13
2025-12-17 14:31:32.242,-0.56,-0.0,8.95,-0.01,-0.09,0.13
2025-12-17 14:31:32.264,-0.45,0.01,8.91,-0.01,-0.09,0.13
2025-12-17 14:31:32.288,-0.42,-0.02,9.01,-0.01,-0.09,0.13
2025-12-17 14:31:32.311,-0.45,0.01,9.05,-0.01,-0.08,0.13
2025-12-17 14:31:32.334,-0.41,-0.04,9.02,-0.01,-0.08,0.13
2025-12-17 14:31:32.357,-0.4,-0.09,9.03,-0.01,-0.08,0.13
2025-12-17 14:31:32.380,-0.46,-0.01,8.98,-0.01,-0.08,0.13
2025-12-17 14:31:32.403,-0.52,-0.03,9.04,-0.01,-0.08,0.13
2025-12-17 14:31:32.426,-0.48,-0.07,9.04,-0.01,-0.08,0.13
2025-12-17 14:31:32.449,-0.53,-0.03,8.96,-0.01,-0.07,0.13
2025-12-17 14:31:32.472,-0.53,-0.02,8.92,-0.01,-0.08,0.13
2025-12-17 14:31:32.495,-0.54,0.03,9.0,-0.01,-0.08,0.13
2025-12-17 14:31:32.518,-0.52,-0.07,9.05,-0.0,-0.08,0.13
2025-12-17 14:31:32.541,-0.52,0.04,9.08,-0.01,-0.08,0.13
2025-12-17 14:31:32.563,-0.46,0.05,8.97,-0.01,-0.08,0.13
2025-12-17 14:31:32.586,-0.47,-0.02,9.0,-0.01,-0.08,0.12
2025-12-17 14:31:32.609,-0.47,0.01,9.04,-0.01,-0.08,0.13
2025-12-17 14:31:32.633,-0.45,0.02,9.06,-0.01,-0.08,0.13
2025-12-17 14:31:32.655,-0.53,0.03,9.02,-0.01,-0.08,0.13
2025-12-17 14:31:32.679,-0.55,0.03,8.99,-0.01,-0.08,0.13
2025-12-17 14:31:32.702,-0.46,-0.01,8.94,-0.01,-0.08,0.13
2025-12-17 14:31:32.725,-0.48,-0.07,8.97,-0.01,-0.08,0.12
2025-12-17 14:31:32.748,-0.46,0.0,8.99,-0.01,-0.08,0.13
2025-12-17 14:31:32.771,-0.57,0.08,9.08,-0.01,-0.08,0.13
2025-12-17 14:31:32.794,-0.51,-0.02,9.03,-0.01,-0.08,0.13
2025-12-17 14:31:32.817,-0.49,-0.07,9.02,-0.01,-0.08,0.13
2025-12-17 14:31:32.840,-0.48,-0.07,9.0,-0.01,-0.08,0.13
2025-12-17 14:31:32.863,-0.42,0.02,9.05,-0.01,-0.08,0.13
2025-12-17 14:31:32.886,-0.49,-0.06,9.04,-0.01,-0.08,0.13
2025-12-17 14:31:32.909,-0.52,-0.01,8.93,-0.01,-0.08,0.13
2025-12-17 14:31:32.932,-0.43,0.05,8.92,-0.01,-0.08,0.13
2025-12-17 14:31:32.955,-0.5,0.07,9.04,-0.01,-0.08,0.13
2025-12-17 14:31:32.978,-0.52,-0.02,9.0,-0.01,-0.08,0.13
2025-12-17 14:31:33.000,-0.48,0.02,8.93,-0.01,-0.08,0.12
2025-12-17 14:31:33.024,-0.47,-0.06,8.97,-0.01,-0.08,0.13
2025-12-17 14:31:33.046,-0.5,-0.05,9.02,-0.01,-0.08,0.13
2025-12-17 14:31:33.070,-0.52,0.0,8.94,-0.01,-0.08,0.13
2025-12-17 14:31:33.093,-0.48,-0.13,8.96,-0.01,-0.08,0.13
2025-12-17 14:31:33.116,-0.47,-0.03,9.03,-0.01,-0.08,0.13
2025-12-17 14:31:33.138,-0.49,0.0,9.03,-0.01,-0.08,0.13
2025-12-17 14:31:33.161,-0.52,-0.06,9.04,-0.01,-0.08,0.13
2025-12-17 14:31:33.184,-0.5,0.01,9.07,-0.01,-0.08,0.13
2025-12-17 14:31:33.208,-0.46,0.02,8.98,-0.01,-0.08,0.13
2025-12-17 14:31:33.231,-0.45,0.12,9.0,-0.01,-0.08,0.13
2025-12-17 14:31:33.254,-0.55,0.0,8.97,-0.01,-0.08,0.13
2025-12-17 14:31:33.277,-0.51,0.02,9.12,-0.01,-0.08,0.13
2025-12-17 14:31:33.300,-0.46,-0.0,8.96,-0.01,-0.08,0.13
2025-12-17 14:31:33.323,-0.41,0.0,9.02,0.0,-0.08,0.13
2025-12-17 14:31:33.345,-0.48,-0.05,9.0,-0.01,-0.09,0.12
2025-12-17 14:31:33.368,-0.51,-0.07,8.99,-0.01,-0.08,0.13
2025-12-17 14:31:33.391,-0.51,-0.08,8.94,-0.01,-0.08,0.13
2025-12-17 14:31:33.415,-0.48,-0.05,9.04,-0.01,-0.08,0.13
2025-12-17 14:31:33.438,-0.44,-0.06,9.06,-0.01,-0.08,0.13
2025-12-17 14:31:33.461,-0.46,-0.01,9.05,-0.01,-0.08,0.13
2025-12-17 14:31:33.484,-0.49,-0.02,9.02,-0.01,-0.08,0.13
2025-12-17 14:31:33.507,-0.5,0.09,9.06,-0.01,-0.08,0.13
2025-12-17 14:31:33.530,-0.45,0.02,9.02,-0.01,-0.08,0.13
2025-12-17 14:31:33.553,-0.44,0.07,9.0,-0.01,-0.08,0.13
2025-12-17 14:31:33.576,-0.52,0.02,9.12,-0.01,-0.08,0.13
2025-12-17 14:31:33.599,-0.48,0.0,9.02,-0.01,-0.09,0.12
2025-12-17 14:31:33.622,-0.47,0.0,9.02,-0.01,-0.08,0.13
2025-12-17 14:31:33.645,-0.52,-0.08,9.02,-0.01,-0.08,0.13
2025-12-17 14:31:33.668,-0.54,-0.11,8.94,-0.01,-0.08,0.13
2025-12-17 14:31:33.691,-0.48,-0.09,9.08,-0.0,-0.08,0.13
2025-12-17 14:31:33.714,-0.55,-0.06,8.94,-0.0,-0.08,0.13
2025-12-17 14:31:33.737,-0.48,-0.06,8.99,-0.01,-0.08,0.13
2025-12-17 14:31:33.760,-0.5,0.03,8.96,-0.01,-0.08,0.13
2025-12-17 14:31:33.782,-0.5,0.03,8.95,-0.01,-0.08,0.13
2025-12-17 14:31:33.806,-0.49,0.03,8.94,-0.01,-0.08,0.13
2025-12-17 14:31:33.829,-0.43,-0.02,9.07,-0.01,-0.09,0.12
2025-12-17 14:31:33.852,-0.43,0.01,9.02,-0.01,-0.08,0.13
2025-12-17 14:31:33.875,-0.47,0.04,9.03,-0.0,-0.08,0.12
2025-12-17 14:31:33.898,-0.56,-0.05,9.09,-0.01,-0.08,0.13
2025-12-17 14:31:33.921,-0.48,-0.03,9.05,-0.01,-0.08,0.13
2025-12-17 14:31:33.944,-0.48,0.0,9.11,-0.01,-0.08,0.13
2025-12-17 14:31:33.967,-0.51,-0.05,9.05,-0.01,-0.08,0.13
2025-12-17 14:31:33.990,-0.5,-0.1,8.97,-0.01,-0.08,0.12
2025-12-17 14:31:34.013,-0.53,-0.03,8.97,-0.01,-0.08,0.12
2025-12-17 14:31:34.035,-0.51,-0.04,9.03,-0.01,-0.09,0.13
2025-12-17 14:31:34.058,-0.51,-0.0,9.12,-0.01,-0.08,0.13
2025-12-17 14:31:34.081,-0.43,-0.02,9.01,-0.01,-0.08,0.13
2025-12-17 14:31:34.104,-0.49,0.0,9.08,-0.0,-0.08,0.13
2025-12-17 14:31:34.128,-0.5,0.0,9.04,-0.01,-0.08,0.13
2025-12-17 14:31:34.151,-0.37,0.03,9.03,-0.01,-0.08,0.13
2025-12-17 14:31:34.173,-0.44,0.0,9.05,-0.01,-0.08,0.13
2025-12-17 14:31:34.197,-0.44,0.02,9.02,-0.01,-0.08,0.13
2025-12-17 14:31:34.220,-0.45,0.0,8.93,-0.01,-0.08,0.13
2025-12-17 14:31:34.243,-0.48,-0.03,9.0,-0.01,-0.09,0.12
2025-12-17 14:31:34.266,-0.55,-0.01,9.14,-0.01,-0.08,0.13
2025-12-17 14:31:34.289,-0.51,-0.06,9.01,0.0,-0.09,0.13
2025-12-17 14:31:34.312,-0.49,0.02,8.92,-0.0,-0.08,0.13
2025-12-17 14:31:34.335,-0.47,-0.02,9.03,-0.01,-0.08,0.13
2025-12-17 14:31:34.358,-0.45,0.03,8.97,-0.01,-0.07,0.13
2025-12-17 14:31:34.381,-0.47,-0.07,9.07,-0.01,-0.08,0.13
2025-12-17 14:31:34.404,-0.45,-0.06,9.07,-0.01,-0.07,0.13
2025-12-17 14:31:34.427,-0.5,0.07,9.05,-0.01,-0.08,0.13
2025-12-17 14:31:34.450,-0.47,-0.01,9.01,-0.01,-0.08,0.13
2025-12-17 14:31:34.473,-0.45,0.0,8.93,-0.01,-0.08,0.13
2025-12-17 14:31:34.496,-0.58,0.0,8.98,-0.01,-0.08,0.13
2025-12-17 14:31:34.519,-0.55,-0.02,9.05,-0.01,-0.08,0.13
2025-12-17 14:31:34.542,-0.55,-0.01,8.99,-0.01,-0.08,0.13
2025-12-17 14:31:34.565,-0.54,-0.08,8.97,-0.01,-0.09,0.13
2025-12-17 14:31:34.588,-0.5,-0.06,9.02,-0.01,-0.09,0.13
2025-12-17 14:31:34.611,-0.41,-0.05,8.97,-0.01,-0.08,0.13
2025-12-17 14:31:34.634,-0.42,0.0,9.06,-0.01,-0.08,0.12
2025-12-17 14:31:34.657,-0.39,-0.02,8.92,-0.01,-0.08,0.13
2025-12-17 14:31:34.680,-0.45,0.02,9.06,-0.01,-0.08,0.13
2025-12-17 14:31:34.703,-0.43,0.03,8.94,-0.01,-0.08,0.13
2025-12-17 14:31:34.726,-0.48,0.0,9.03,-0.0,-0.08,0.13
2025-12-17 14:31:34.749,-0.45,0.12,9.02,-0.0,-0.08,0.13
2025-12-17 14:31:34.772,-0.54,0.1,8.99,-0.0,-0.08,0.13
2025-12-17 14:31:34.795,-0.54,0.13,8.96,-0.01,-0.09,0.13
2025-12-17 14:31:34.818,-0.59,-0.01,8.87,-0.01,-0.08,0.13
2025-12-17 14:31:34.841,-0.59,-0.19,9.1,-0.01,-0.1,0.13
2025-12-17 14:31:34.864,-0.51,-0.19,9.11,-0.01,-0.09,0.13
2025-12-17 14:31:34.887,-0.54,-0.17,9.07,-0.01,-0.09,0.12
2025-12-17 14:31:34.909,-0.5,-0.13,9.33,-0.01,-0.09,0.13
2025-12-17 14:31:34.933,-0.42,-0.16,8.99,-0.0,-0.08,0.13
2025-12-17 14:31:34.956,-0.42,-0.07,9.01,-0.0,-0.09,0.13
2025-12-17 14:31:34.979,-0.42,0.02,9.05,-0.01,-0.08,0.13
2025-12-17 14:31:35.001,-0.41,0.05,9.02,-0.01,-0.07,0.13
2025-12-17 14:31:35.025,-0.48,0.13,8.96,-0.01,-0.07,0.13
2025-12-17 14:31:35.047,-0.4,0.12,9.07,-0.01,-0.07,0.13
2025-12-17 14:31:35.071,-0.4,0.15,9.02,-0.0,-0.07,0.13
2025-12-17 14:31:35.094,-0.51,0.13,8.95,-0.01,-0.08,0.12
2025-12-17 14:31:35.117,-0.51,0.02,8.97,-0.01,-0.08,0.13
2025-12-17 14:31:35.139,-0.47,0.02,8.98,-0.01,-0.08,0.13
2025-12-17 14:31:35.163,-0.45,-0.06,8.99,-0.01,-0.09,0.13
2025-12-17 14:31:35.186,-0.53,-0.13,9.0,-0.01,-0.08,0.13
2025-12-17 14:31:35.209,-0.45,-0.14,9.07,-0.01,-0.08,0.13
2025-12-17 14:31:35.232,-0.47,-0.18,8.99,-0.01,-0.08,0.12
2025-12-17 14:31:35.255,-0.45,-0.17,9.04,-0.01,-0.08,0.13
2025-12-17 14:31:35.278,-0.47,-0.04,9.05,-0.01,-0.08,0.13
2025-12-17 14:31:35.301,-0.52,-0.02,9.01,-0.01,-0.08,0.13
2025-12-17 14:31:35.324,-0.48,0.1,8.96,-0.01,-0.07,0.13
2025-12-17 14:31:35.347,-0.38,0.13,8.97,-0.01,-0.08,0.13
2025-12-17 14:31:35.370,-0.42,0.16,8.99,-0.01,-0.08,0.13
2025-12-17 14:31:35.393,-0.45,0.13,9.06,-0.01,-0.08,0.12
2025-12-17 14:31:35.416,-0.51,0.02,8.99,-0.01,-0.08,0.12
2025-12-17 14:31:35.439,-0.48,0.0,9.02,-0.01,-0.09,0.13
2025-12-17 14:31:35.462,-0.47,-0.07,9.03,-0.01,-0.09,0.13
2025-12-17 14:31:35.485,-0.44,-0.14,9.1,-0.01,-0.08,0.13
2025-12-17 14:31:35.508,-0.46,-0.12,9.03,-0.01,-0.08,0.13
2025-12-17 14:31:35.531,-0.47,-0.14,9.09,-0.01,-0.08,0.13
2025-12-17 14:31:35.554,-0.55,-0.15,9.07,-0.0,-0.08,0.13
2025-12-17 14:31:35.577,-0.45,-0.07,9.13,-0.01,-0.08,0.13
2025-12-17 14:31:35.600,-0.51,-0.09,9.06,-0.0,-0.08,0.12
2025-12-17 14:31:35.623,-0.49,0.01,9.04,-0.01,-0.08,0.13
2025-12-17 14:31:35.645,-0.48,0.04,9.01,-0.01,-0.08,0.13
2025-12-17 14:31:35.669,-0.5,0.04,8.97,-0.01,-0.08,0.13
2025-12-17 14:31:35.692,-0.48,0.03,9.05,-0.01,-0.08,0.13
2025-12-17 14:31:35.715,-0.43,0.04,8.95,-0.01,-0.09,0.13
2025-12-17 14:31:35.738,-0.4,0.04,9.02,-0.01,-0.08,0.13
2025-12-17 14:31:35.761,-0.41,0.05,9.01,-0.01,-0.08,0.13
2025-12-17 14:31:35.783,-0.49,-0.02,9.04,-0.01,-0.08,0.13
2025-12-17 14:31:35.807,-0.47,-0.03,9.04,-0.01,-0.08,0.13
2025-12-17 14:31:35.830,-0.53,-0.15,9.03,-0.01,-0.08,0.13
2025-12-17 14:31:35.853,-0.57,-0.1,9.06,-0.01,-0.08,0.12
2025-12-17 14:31:35.876,-0.54,-0.13,9.06,-0.01,-0.08,0.13
2025-12-17 14:31:35.899,-0.57,-0.07,8.94,-0.01,-0.08,0.13
2025-12-17 14:31:35.922,-0.56,-0.02,8.98,-0.01,-0.08,0.13
2025-12-17 14:31:35.945,-0.52,0.0,9.0,-0.01,-0.08,0.13
2025-12-17 14:31:35.968,-0.45,0.05,8.89,-0.01,-0.08,0.13
2025-12-17 14:31:35.990,-0.49,0.07,9.0,-0.01,-0.08,0.12
2025-12-17 14:31:36.013,-0.49,0.05,9.01,-0.01,-0.08,0.13
2025-12-17 14:31:36.036,-0.44,0.03,9.03,-0.01,-0.08,0.13
2025-12-17 14:31:36.060,-0.43,0.04,9.03,-0.01,-0.08,0.13
2025-12-17 14:31:36.083,-0.39,0.02,9.02,-0.01,-0.08,0.13
2025-12-17 14:31:36.106,-0.43,-0.07,8.94,-0.01,-0.08,0.13
2025-12-17 14:31:36.129,-0.5,-0.07,8.99,-0.01,-0.08,0.13
2025-12-17 14:31:36.152,-0.49,-0.01,9.0,-0.01,-0.08,0.13
2025-12-17 14:31:36.175,-0.53,-0.03,9.1,-0.01,-0.08,0.12
2025-12-17 14:31:36.198,-0.51,-0.07,8.97,-0.01,-0.08,0.13
2025-12-17 14:31:36.221,-0.52,-0.07,9.0,-0.01,-0.08,0.13
2025-12-17 14:31:36.244,-0.56,-0.03,9.06,-0.01,-0.08,0.13
2025-12-17 14:31:36.267,-0.45,-0.02,9.08,-0.01,-0.08,0.13
2025-12-17 14:31:36.290,-0.56,0.02,9.07,-0.01,-0.08,0.12
2025-12-17 14:31:36.313,-0.43,-0.01,9.01,-0.01,-0.08,0.13
2025-12-17 14:31:36.336,-0.39,-0.01,9.05,-0.01,-0.08,0.13
2025-12-17 14:31:36.359,-0.43,0.04,9.07,-0.01,-0.08,0.13
2025-12-17 14:31:36.382,-0.4,0.06,8.97,-0.01,-0.07,0.13
2025-12-17 14:31:36.405,-0.52,-0.02,8.99,-0.01,-0.08,0.13
2025-12-17 14:31:36.428,-0.53,-0.06,9.0,-0.0,-0.08,0.13
2025-12-17 14:31:36.451,-0.5,-0.02,9.04,-0.01,-0.08,0.13
2025-12-17 14:31:36.474,-0.52,-0.08,9.11,-0.01,-0.08,0.13
2025-12-17 14:31:36.497,-0.43,-0.1,9.05,-0.01,-0.08,0.13
2025-12-17 14:31:36.520,-0.53,-0.04,8.95,-0.01,-0.08,0.13
2025-12-17 14:31:36.543,-0.54,-0.02,9.07,-0.01,-0.08,0.13
2025-12-17 14:31:36.566,-0.49,0.01,9.12,-0.01,-0.08,0.13
2025-12-17 14:31:36.589,-0.46,0.01,9.04,-0.01,-0.08,0.13
2025-12-17 14:31:36.612,-0.45,-0.03,9.02,-0.01,-0.08,0.13
2025-12-17 14:31:36.635,-0.42,0.0,9.01,-0.01,-0.08,0.13
2025-12-17 14:31:36.658,-0.4,0.02,8.97,-0.0,-0.08,0.13
2025-12-17 14:31:36.681,-0.45,-0.03,9.02,-0.01,-0.08,0.13
2025-12-17 14:31:36.704,-0.51,0.06,8.97,-0.01,-0.08,0.13
2025-12-17 14:31:36.727,-0.49,0.03,9.01,-0.01,-0.08,0.13
2025-12-17 14:31:36.750,-0.51,-0.01,9.1,-0.01,-0.08,0.12
2025-12-17 14:31:36.773,-0.46,-0.01,8.98,-0.01,-0.08,0.13
2025-12-17 14:31:36.796,-0.45,-0.02,9.1,-0.01,-0.08,0.13
2025-12-17 14:31:36.819,-0.49,-0.08,9.02,-0.01,-0.08,0.13
2025-12-17 14:31:36.842,-0.5,-0.08,9.02,-0.01,-0.08,0.13
2025-12-17 14:31:36.865,-0.45,-0.05,8.99,-0.01,-0.08,0.13
2025-12-17 14:31:36.888,-0.47,-0.05,9.07,-0.01,-0.08,0.13
2025-12-17 14:31:36.911,-0.48,0.04,9.09,-0.01,-0.08,0.13
2025-12-17 14:31:36.934,-0.43,-0.05,9.05,-0.01,-0.08,0.12
2025-12-17 14:31:36.957,-0.37,-0.01,9.07,-0.01,-0.08,0.13
2025-12-17 14:31:36.979,-0.47,0.0,9.01,-0.01,-0.08,0.13
2025-12-17 14:31:37.003,-0.47,-0.0,9.14,-0.01,-0.08,0.12
2025-12-17 14:31:37.025,-0.48,0.03,8.97,-0.01,-0.08,0.13
2025-12-17 14:31:37.049,-0.52,0.04,8.99,-0.01,-0.08,0.13
2025-12-17 14:31:37.072,-0.46,-0.01,8.95,-0.01,-0.08,0.13
2025-12-17 14:31:37.095,-0.4,-0.01,9.05,-0.01,-0.08,0.13
2025-12-17 14:31:37.118,-0.45,0.0,8.95,-0.01,-0.08,0.13
2025-12-17 14:31:37.141,-0.44,-0.03,9.05,-0.01,-0.08,0.13
2025-12-17 14:31:37.164,-0.52,0.01,9.14,-0.01,-0.09,0.13
2025-12-17 14:31:37.187,-0.5,-0.04,9.16,-0.0,-0.08,0.13
2025-12-17 14:31:37.210,-0.42,-0.05,8.98,-0.01,-0.08,0.13
2025-12-17 14:31:37.233,-0.45,-0.02,9.03,-0.01,-0.08,0.13
2025-12-17 14:31:37.256,-0.47,-0.02,9.0,-0.01,-0.08,0.13
2025-12-17 14:31:37.279,-0.46,-0.07,8.92,-0.01,-0.08,0.13
2025-12-17 14:31:37.302,-0.5,-0.02,8.98,-0.01,-0.08,0.13
2025-12-17 14:31:37.325,-0.53,0.02,9.05,-0.01,-0.08,0.12
2025-12-17 14:31:37.348,-0.47,-0.01,8.98,-0.01,-0.08,0.13
2025-12-17 14:31:37.371,-0.44,0.02,9.04,-0.01,-0.08,0.13
2025-12-17 14:31:37.394,-0.45,-0.02,8.99,-0.01,-0.08,0.13
2025-12-17 14:31:37.417,-0.45,-0.03,8.93,-0.01,-0.08,0.13
2025-12-17 14:31:37.440,-0.45,0.01,9.04,-0.01,-0.08,0.12
2025-12-17 14:31:37.463,-0.48,-0.02,9.04,-0.01,-0.08,0.12
2025-12-17 14:31:37.486,-0.47,0.01,9.02,-0.01,-0.08,0.13
2025-12-17 14:31:37.509,-0.45,-0.07,9.0,-0.01,-0.08,0.13
2025-12-17 14:31:37.532,-0.5,0.0,9.01,-0.01,-0.08,0.13
2025-12-17 14:31:37.555,-0.5,-0.01,8.98,-0.0,-0.08,0.13
2025-12-17 14:31:37.578,-0.5,0.0,9.06,-0.01,-0.08,0.13
2025-12-17 14:31:37.601,-0.56,0.02,8.97,-0.01,-0.08,0.12
2025-12-17 14:31:37.624,-0.48,-0.02,9.11,-0.01,-0.08,0.13
2025-12-17 14:31:37.647,-0.45,0.01,9.0,-0.01,-0.08,0.13
2025-12-17 14:31:37.670,-0.51,-0.05,8.99,-0.01,-0.08,0.13
2025-12-17 14:31:37.693,-0.45,-0.02,9.02,-0.01,-0.08,0.13
2025-12-17 14:31:37.716,-0.44,0.01,9.01,-0.01,-0.08,0.12
2025-12-17 14:31:37.739,-0.5,0.01,9.1,-0.01,-0.08,0.12
2025-12-17 14:31:37.762,-0.48,-0.0,8.94,-0.01,-0.08,0.13
2025-12-17 14:31:37.784,-0.51,0.01,9.01,-0.01,-0.08,0.12
2025-12-17 14:31:37.808,-0.5,0.09,9.01,-0.01,-0.07,0.13
2025-12-17 14:31:37.831,-0.44,-0.01,8.98,-0.01,-0.08,0.13
2025-12-17 14:31:37.854,-0.51,-0.04,9.12,-0.01,-0.08,0.13
2025-12-17 14:31:37.877,-0.5,-0.09,9.1,-0.01,-0.08,0.13
2025-12-17 14:31:37.900,-0.5,-0.04,9.03,-0.01,-0.08,0.13
2025-12-17 14:31:37.923,-0.5,-0.06,9.03,-0.01,-0.08,0.13
2025-12-17 14:31:37.946,-0.45,-0.03,8.96,-0.01,-0.08,0.12
2025-12-17 14:31:37.969,-0.45,0.0,9.02,-0.01,-0.08,0.13
2025-12-17 14:31:37.992,-0.5,0.02,9.04,-0.01,-0.08,0.13
2025-12-17 14:31:38.015,-0.42,-0.02,8.98,-0.01,-0.08,0.12
2025-12-17 14:31:38.038,-0.46,0.03,9.05,-0.01,-0.08,0.13
2025-12-17 14:31:38.061,-0.49,0.04,9.07,-0.01,-0.08,0.13
2025-12-17 14:31:38.084,-0.48,0.01,9.0,-0.01,-0.08,0.13
2025-12-17 14:31:38.107,-0.54,0.01,8.98,-0.01,-0.08,0.13
2025-12-17 14:31:38.130,-0.49,0.02,9.05,-0.01,-0.08,0.13
2025-12-17 14:31:38.153,-0.51,-0.04,9.04,-0.01,-0.08,0.12
2025-12-17 14:31:38.176,-0.45,-0.04,8.98,-0.01,-0.08,0.13
2025-12-17 14:31:38.199,-0.44,-0.03,8.96,-0.01,-0.08,0.12
2025-12-17 14:31:38.222,-0.47,-0.06,8.99,-0.01,-0.08,0.12
2025-12-17 14:31:38.245,-0.48,-0.09,9.08,-0.01,-0.08,0.13
2025-12-17 14:31:38.268,-0.47,0.02,8.92,-0.01,-0.08,0.13
2025-12-17 14:31:38.291,-0.53,-0.06,9.0,-0.01,-0.08,0.13
2025-12-17 14:31:38.313,-0.49,-0.0,9.03,-0.01,-0.08,0.13
2025-12-17 14:31:38.337,-0.45,-0.05,9.07,-0.01,-0.08,0.12
2025-12-17 14:31:38.360,-0.43,0.02,8.97,-0.01,-0.08,0.13
2025-12-17 14:31:38.383,-0.46,0.0,9.02,-0.01,-0.08,0.13
2025-12-17 14:31:38.406,-0.4,0.01,9.06,-0.01,-0.08,0.12
2025-12-17 14:31:38.429,-0.47,-0.01,8.99,-0.01,-0.08,0.13
2025-12-17 14:31:38.452,-0.45,-0.04,8.98,-0.01,-0.08,0.13
2025-12-17 14:31:38.475,-0.47,-0.04,9.03,-0.01,-0.08,0.13
2025-12-17 14:31:38.498,-0.5,-0.06,8.96,-0.01,-0.08,0.13
2025-12-17 14:31:38.521,-0.49,-0.1,8.99,-0.01,-0.08,0.13
2025-12-17 14:31:38.544,-0.48,-0.11,9.18,-0.01,-0.08,0.13
2025-12-17 14:31:38.567,-0.53,-0.07,9.02,-0.01,-0.08,0.13
2025-12-17 14:31:38.590,-0.44,0.01,9.04,-0.01,-0.08,0.13
2025-12-17 14:31:38.613,-0.46,-0.01,9.0,-0.01,-0.08,0.13
2025-12-17 14:31:38.636,-0.45,0.02,8.99,-0.01,-0.08,0.13
2025-12-17 14:31:38.659,-0.48,0.07,9.1,-0.01,-0.08,0.13
2025-12-17 14:31:38.682,-0.48,0.04,8.87,-0.01,-0.08,0.13
2025-12-17 14:31:38.705,-0.45,0.03,9.02,-0.01,-0.08,0.13
2025-12-17 14:31:38.728,-0.49,-0.02,9.05,-0.01,-0.08,0.13
2025-12-17 14:31:38.751,-0.48,-0.0,9.05,-0.01,-0.08,0.13
2025-12-17 14:31:38.774,-0.46,-0.1,9.05,-0.01,-0.08,0.13
2025-12-17 14:31:38.797,-0.46,-0.04,8.97,-0.01,-0.08,0.13
2025-12-17 14:31:38.820,-0.49,0.0,9.03,-0.01,-0.08,0.13
2025-12-17 14:31:38.843,-0.51,-0.03,8.97,-0.01,-0.08,0.13
2025-12-17 14:31:38.866,-0.49,-0.07,9.0,-0.01,-0.08,0.13
2025-12-17 14:31:38.889,-0.47,-0.01,9.06,-0.01,-0.08,0.13
2025-12-17 14:31:38.912,-0.54,-0.01,9.04,-0.01,-0.08,0.12
2025-12-17 14:31:38.935,-0.5,-0.02,8.96,-0.01,-0.08,0.13
2025-12-17 14:31:38.958,-0.44,-0.03,8.98,-0.01,-0.08,0.13
2025-12-17 14:31:38.981,-0.44,0.02,9.07,-0.01,-0.08,0.12
2025-12-17 14:31:39.004,-0.5,0.03,8.99,-0.01,-0.08,0.12
2025-12-17 14:31:39.027,-0.41,0.05,9.06,-0.01,-0.08,0.13
2025-12-17 14:31:39.050,-0.47,-0.02,9.05,-0.01,-0.08,0.13
2025-12-17 14:31:39.074,-0.5,-0.05,9.07,-0.01,-0.08,0.12
2025-12-17 14:31:39.097,-0.47,-0.04,8.97,-0.01,-0.08,0.13
2025-12-17 14:31:39.119,-0.55,-0.02,9.03,-0.01,-0.08,0.13
2025-12-17 14:31:39.143,-0.49,-0.02,9.04,-0.01,-0.08,0.13
2025-12-17 14:31:39.165,-0.53,-0.1,8.97,-0.01,-0.08,0.13
2025-12-17 14:31:39.188,-0.46,-0.01,9.03,-0.01,-0.08,0.13
2025-12-17 14:31:39.211,-0.45,0.01,8.98,-0.01,-0.08,0.13
2025-12-17 14:31:39.234,-0.46,0.02,9.02,-0.01,-0.08,0.12
2025-12-17 14:31:39.257,-0.45,0.04,9.01,-0.01,-0.08,0.13
2025-12-17 14:31:39.281,-0.48,-0.01,9.04,-0.01,-0.08,0.13
2025-12-17 14:31:39.303,-0.45,-0.01,8.97,-0.01,-0.08,0.13
2025-12-17 14:31:39.326,-0.46,0.01,8.94,-0.01,-0.08,0.13
2025-12-17 14:31:39.349,-0.45,0.02,8.98,-0.01,-0.08,0.13
2025-12-17 14:31:39.372,-0.48,-0.0,9.01,-0.01,-0.08,0.13
2025-12-17 14:31:39.395,-0.48,-0.02,9.05,-0.01,-0.08,0.13
2025-12-17 14:31:39.418,-0.45,-0.05,9.02,-0.01,-0.08,0.13
2025-12-17 14:31:39.441,-0.47,-0.06,9.08,-0.01,-0.08,0.13
2025-12-17 14:31:39.464,-0.51,-0.04,9.05,-0.01,-0.08,0.13
2025-12-17 14:31:39.487,-0.44,-0.04,9.09,-0.01,-0.08,0.13
2025-12-17 14:31:39.510,-0.53,0.03,9.03,-0.01,-0.08,0.13
