timestamp,acel_x,acel_y,acel_z,gyro_x,gyro_y,gyro_z
2025-12-17 14:28:01.296,-0.25,0.21,9.08,-0.01,-0.08,0.13
2025-12-17 14:28:01.319,-0.28,0.21,9.05,-0.0,-0.08,0.13
2025-12-17 14:28:01.342,-0.19,0.16,9.11,-0.01,-0.08,0.13
2025-12-17 14:28:01.365,-0.25,0.17,9.01,-0.0,-0.08,0.12
2025-12-17 14:28:01.388,-0.26,0.24,9.03,-0.01,-0.08,0.13
2025-12-17 14:28:01.411,-0.18,0.26,8.99,-0.01,-0.08,0.12
2025-12-17 14:28:01.434,-0.13,0.22,8.99,-0.01,-0.08,0.12
2025-12-17 14:28:01.457,-0.14,0.2,9.09,-0.01,-0.08,0.12
2025-12-17 14:28:01.480,-0.23,0.15,9.08,-0.01,-0.08,0.13
2025-12-17 14:28:01.503,-0.19,0.22,9.04,-0.01,-0.08,0.13
2025-12-17 14:28:01.526,-0.2,0.15,9.06,-0.01,-0.08,0.13
2025-12-17 14:28:01.550,-0.23,0.18,9.03,-0.01,-0.08,0.12
2025-12-17 14:28:01.572,-0.21,0.19,9.05,-0.01,-0.08,0.13
2025-12-17 14:28:01.595,-0.26,0.18,8.96,-0.01,-0.08,0.12
2025-12-17 14:28:01.619,-0.28,0.25,8.97,-0.01,-0.08,0.13
2025-12-17 14:28:01.641,-0.24,0.18,9.02,-0.01,-0.08,0.13
2025-12-17 14:28:01.664,-0.26,0.23,8.99,-0.0,-0.08,0.12
2025-12-17 14:28:01.687,-0.22,0.23,9.05,-0.01,-0.08,0.12
2025-12-17 14:28:01.710,-0.25,0.2,9.03,-0.01,-0.08,0.13
2025-12-17 14:28:01.733,-0.25,0.18,9.11,-0.01,-0.08,0.13
2025-12-17 14:28:01.757,-0.19,0.13,9.01,-0.01,-0.08,0.13
2025-12-17 14:28:01.778,-0.22,0.2,8.98,-0.01,-0.08,0.13
2025-12-17 14:28:01.802,-0.18,0.19,9.1,-0.01,-0.08,0.13
2025-12-17 14:28:01.825,-0.21,0.14,9.0,-0.01,-0.08,0.13
2025-12-17 14:28:01.848,-0.29,0.19,9.08,-0.01,-0.08,0.13
2025-12-17 14:28:01.871,-0.21,0.13,9.0,-0.0,-0.08,0.13
2025-12-17 14:28:01.894,-0.21,0.1,9.03,-0.01,-0.08,0.13
2025-12-17 14:28:01.917,-0.27,0.22,9.02,-0.01,-0.08,0.13
2025-12-17 14:28:01.940,-0.26,0.24,9.0,-0.01,-0.08,0.13
2025-12-17 14:28:01.963,-0.21,0.11,9.07,-0.01,-0.08,0.13
2025-12-17 14:28:01.987,-0.23,0.18,9.07,-0.01,-0.08,0.12
2025-12-17 14:28:02.009,-0.25,0.15,9.03,-0.01,-0.08,0.12
2025-12-17 14:28:02.032,-0.13,0.15,9.03,-0.01,-0.08,0.13
2025-12-17 14:28:02.055,-0.2,0.16,9.11,-0.01,-0.08,0.13
2025-12-17 14:28:02.079,-0.2,0.2,9.0,-0.01,-0.08,0.12
2025-12-17 14:28:02.101,-0.21,0.16,9.11,-0.01,-0.08,0.13
2025-12-17 14:28:02.125,-0.23,0.17,9.11,-0.01,-0.08,0.12
2025-12-17 14:28:02.148,-0.25,0.18,9.05,-0.01,-0.08,0.13
2025-12-17 14:28:02.170,-0.21,0.2,9.0,-0.01,-0.08,0.12
2025-12-17 14:28:02.193,-0.19,0.17,8.98,-0.01,-0.08,0.12
2025-12-17 14:28:02.217,-0.18,0.21,9.04,-0.01,-0.08,0.13
2025-12-17 14:28:02.240,-0.22,0.23,9.12,-0.01,-0.08,0.13
2025-12-17 14:28:02.263,-0.25,0.19,9.03,-0.01,-0.08,0.13
2025-12-17 14:28:02.286,-0.29,0.2,9.08,-0.01,-0.08,0.12
2025-12-17 14:28:02.309,-0.15,0.14,9.07,-0.01,-0.08,0.13
2025-12-17 14:28:02.331,-0.13,0.12,9.04,-0.01,-0.08,0.13
2025-12-17 14:28:02.355,-0.14,0.2,9.04,-0.01,-0.08,0.13
2025-12-17 14:28:02.377,-0.16,0.22,9.0,-0.01,-0.08,0.13
2025-12-17 14:28:02.400,-0.21,0.15,9.1,-0.0,-0.08,0.13
2025-12-17 14:28:02.423,-0.23,0.18,8.99,-0.01,-0.08,0.13
2025-12-17 14:28:02.446,-0.25,0.21,8.99,-0.01,-0.08,0.13
2025-12-17 14:28:02.469,-0.22,0.19,9.09,-0.01,-0.08,0.13
2025-12-17 14:28:02.492,-0.28,0.16,9.05,-0.01,-0.08,0.13
2025-12-17 14:28:02.516,-0.25,0.19,8.93,-0.01,-0.08,0.12
2025-12-17 14:28:02.539,-0.29,0.2,9.02,-0.01,-0.08,0.13
2025-12-17 14:28:02.562,-0.27,0.21,9.06,-0.01,-0.08,0.12
2025-12-17 14:28:02.585,-0.22,0.18,8.97,-0.01,-0.08,0.13
2025-12-17 14:28:02.608,-0.2,0.19,9.0,-0.01,-0.08,0.13
2025-12-17 14:28:02.630,-0.2,0.17,8.97,-0.01,-0.08,0.13
2025-12-17 14:28:02.653,-0.14,0.14,9.01,-0.01,-0.08,0.12
2025-12-17 14:28:02.676,-0.19,0.23,9.03,-0.01,-0.08,0.13
2025-12-17 14:28:02.699,-0.19,0.17,9.09,-0.01,-0.08,0.13
2025-12-17 14:28:02.722,-0.23,0.15,9.07,-0.01,-0.08,0.13
2025-12-17 14:28:02.745,-0.18,0.24,9.01,-0.01,-0.08,0.12
2025-12-17 14:28:02.768,-0.27,0.23,9.06,-0.01,-0.08,0.12
2025-12-17 14:28:02.791,-0.27,0.21,9.1,-0.0,-0.08,0.13
2025-12-17 14:28:02.814,-0.28,0.27,9.09,-0.01,-0.08,0.13
2025-12-17 14:28:02.837,-0.25,0.11,9.06,-0.01,-0.08,0.13
2025-12-17 14:28:02.860,-0.29,0.14,8.96,-0.01,-0.08,0.13
2025-12-17 14:28:02.883,-0.24,0.21,9.0,-0.01,-0.08,0.13
2025-12-17 14:28:02.906,-0.17,0.18,9.02,-0.01,-0.08,0.13
2025-12-17 14:28:02.929,-0.19,0.21,9.15,-0.01,-0.08,0.13
2025-12-17 14:28:02.952,-0.18,0.16,9.09,-0.01,-0.08,0.13
2025-12-17 14:28:02.976,-0.17,0.13,9.0,-0.0,-0.08,0.13
2025-12-17 14:28:02.999,-0.15,0.24,8.99,-0.01,-0.08,0.13
2025-12-17 14:28:03.021,-0.17,0.19,9.03,-0.01,-0.08,0.13
2025-12-17 14:28:03.045,-0.25,0.2,9.02,-0.01,-0.08,0.13
2025-12-17 14:28:03.067,-0.24,0.22,9.01,-0.01,-0.08,0.13
2025-12-17 14:28:03.090,-0.26,0.15,9.05,-0.01,-0.08,0.12
2025-12-17 14:28:03.114,-0.28,0.19,9.04,-0.01,-0.08,0.12
2025-12-17 14:28:03.136,-0.28,0.17,8.95,-0.01,-0.08,0.13
2025-12-17 14:28:03.160,-0.28,0.13,9.04,-0.01,-0.08,0.13
2025-12-17 14:28:03.182,-0.24,0.18,9.02,-0.01,-0.08,0.13
2025-12-17 14:28:03.206,-0.23,0.14,9.03,-0.01,-0.08,0.13
2025-12-17 14:28:03.229,-0.14,0.19,9.02,-0.01,-0.08,0.13
2025-12-17 14:28:03.251,-0.15,0.13,9.05,-0.01,-0.08,0.12
2025-12-17 14:28:03.274,-0.12,0.13,8.98,-0.01,-0.08,0.13
2025-12-17 14:28:03.297,-0.19,0.21,9.0,-0.0,-0.08,0.13
2025-12-17 14:28:03.320,-0.23,0.22,9.07,-0.01,-0.08,0.12
2025-12-17 14:28:03.344,-0.23,0.16,9.05,-0.01,-0.08,0.13
2025-12-17 14:28:03.366,-0.22,0.16,9.17,-0.01,-0.08,0.13
2025-12-17 14:28:03.390,-0.28,0.25,9.09,-0.01,-0.08,0.12
2025-12-17 14:28:03.413,-0.32,0.25,9.01,-0.01,-0.08,0.12
2025-12-17 14:28:03.435,-0.21,0.25,9.01,-0.01,-0.08,0.12
2025-12-17 14:28:03.458,-0.26,0.21,9.05,-0.01,-0.08,0.13
2025-12-17 14:28:03.482,-0.24,0.16,9.02,-0.01,-0.08,0.13
2025-12-17 14:28:03.504,-0.28,0.14,9.07,-0.01,-0.08,0.13
2025-12-17 14:28:03.527,-0.09,0.16,9.04,-0.01,-0.08,0.13
2025-12-17 14:28:03.551,-0.14,0.25,9.03,-0.01,-0.08,0.13
2025-12-17 14:28:03.574,-0.23,0.17,9.07,-0.01,-0.08,0.13
2025-12-17 14:28:03.596,-0.23,0.2,8.96,-0.01,-0.08,0.12
2025-12-17 14:28:03.619,-0.21,0.24,9.08,-0.01,-0.08,0.13
2025-12-17 14:28:03.642,-0.19,0.16,9.07,-0.01,-0.08,0.13
2025-12-17 14:28:03.665,-0.25,0.2,8.95,-0.01,-0.08,0.13
2025-12-17 14:28:03.688,-0.15,0.22,9.11,-0.01,-0.08,0.13
2025-12-17 14:28:03.711,-0.25,0.14,8.96,-0.01,-0.08,0.13
2025-12-17 14:28:03.734,-0.28,0.2,9.02,-0.01,-0.08,0.13
2025-12-17 14:28:03.757,-0.22,0.19,9.13,-0.01,-0.08,0.12
2025-12-17 14:28:03.780,-0.24,0.09,9.03,-0.01,-0.08,0.13
2025-12-17 14:28:03.803,-0.19,0.2,9.0,-0.01,-0.08,0.13
2025-12-17 14:28:03.826,-0.18,0.2,9.07,-0.01,-0.08,0.13
2025-12-17 14:28:03.849,-0.22,0.17,8.98,-0.01,-0.08,0.13
2025-12-17 14:28:03.872,-0.22,0.2,9.09,-0.0,-0.08,0.13
2025-12-17 14:28:03.895,-0.18,0.15,9.1,-0.01,-0.08,0.13
2025-12-17 14:28:03.918,-0.22,0.12,8.99,-0.01,-0.08,0.13
2025-12-17 14:28:03.941,-0.22,0.16,9.09,-0.01,-0.08,0.13
2025-12-17 14:28:03.964,-0.22,0.23,9.01,-0.01,-0.08,0.13
2025-12-17 14:28:03.987,-0.24,0.2,9.11,-0.01,-0.08,0.13
2025-12-17 14:28:04.010,-0.29,0.09,9.2,-0.01,-0.08,0.13
2025-12-17 14:28:04.034,-0.28,0.17,9.04,-0.01,-0.08,0.13
2025-12-17 14:28:04.057,-0.23,0.22,9.04,-0.01,-0.08,0.13
2025-12-17 14:28:04.080,-0.2,0.14,9.04,-0.01,-0.08,0.13
2025-12-17 14:28:04.103,-0.22,0.12,9.04,-0.01,-0.08,0.13
2025-12-17 14:28:04.125,-0.19,0.11,9.08,-0.01,-0.08,0.13
2025-12-17 14:28:04.148,-0.2,0.19,9.13,-0.01,-0.08,0.13
2025-12-17 14:28:04.171,-0.21,0.15,9.04,-0.01,-0.08,0.13
2025-12-17 14:28:04.194,-0.18,0.19,9.0,-0.01,-0.08,0.13
2025-12-17 14:28:04.217,-0.16,0.23,9.07,-0.01,-0.08,0.12
2025-12-17 14:28:04.240,-0.21,0.19,9.02,-0.01,-0.08,0.13
2025-12-17 14:28:04.263,-0.2,0.17,8.93,-0.01,-0.08,0.13
2025-12-17 14:28:04.286,-0.26,0.17,9.09,-0.01,-0.08,0.13
2025-12-17 14:28:04.309,-0.24,0.16,9.02,-0.01,-0.08,0.13
2025-12-17 14:28:04.332,-0.19,0.16,9.09,-0.01,-0.08,0.12
2025-12-17 14:28:04.355,-0.22,0.22,9.09,-0.01,-0.08,0.13
2025-12-17 14:28:04.378,-0.17,0.19,9.08,-0.01,-0.08,0.13
2025-12-17 14:28:04.401,-0.23,0.17,9.04,-0.01,-0.08,0.13
2025-12-17 14:28:04.424,-0.22,0.12,9.06,-0.01,-0.08,0.13
2025-12-17 14:28:04.447,-0.2,0.21,9.06,-0.01,-0.08,0.13
2025-12-17 14:28:04.470,-0.26,0.17,9.02,-0.01,-0.08,0.12
2025-12-17 14:28:04.493,-0.2,0.28,9.07,-0.01,-0.08,0.13
2025-12-17 14:28:04.516,-0.21,0.13,9.06,-0.01,-0.08,0.13
2025-12-17 14:28:04.539,-0.18,0.21,9.01,-0.01,-0.08,0.13
2025-12-17 14:28:04.562,-0.21,0.23,9.06,-0.01,-0.08,0.13
2025-12-17 14:28:04.585,-0.23,0.15,9.09,-0.01,-0.08,0.13
2025-12-17 14:28:04.608,-0.2,0.16,9.03,-0.01,-0.08,0.13
2025-12-17 14:28:04.631,-0.2,0.19,9.08,-0.01,-0.08,0.12
2025-12-17 14:28:04.654,-0.2,0.09,9.09,-0.01,-0.08,0.12
2025-12-17 14:28:04.677,-0.2,0.2,9.09,-0.01,-0.08,0.13
2025-12-17 14:28:04.701,-0.19,0.23,9.07,-0.01,-0.08,0.13
2025-12-17 14:28:04.723,-0.21,0.18,9.04,-0.01,-0.08,0.12
2025-12-17 14:28:04.747,-0.21,0.21,9.07,-0.01,-0.08,0.12
2025-12-17 14:28:04.770,-0.13,0.15,9.01,-0.01,-0.08,0.13
2025-12-17 14:28:04.793,-0.16,0.16,9.1,-0.01,-0.08,0.13
2025-12-17 14:28:04.816,-0.2,0.23,9.02,-0.01,-0.08,0.13
2025-12-17 14:28:04.838,-0.23,0.3,9.15,-0.01,-0.08,0.13
2025-12-17 14:28:04.861,-0.21,0.19,9.06,-0.01,-0.08,0.13
2025-12-17 14:28:04.884,-0.2,0.15,9.15,-0.01,-0.08,0.13
2025-12-17 14:28:04.908,-0.22,0.18,9.05,-0.01,-0.08,0.12
2025-12-17 14:28:04.930,-0.28,0.21,9.05,-0.01,-0.08,0.13
2025-12-17 14:28:04.953,-0.28,0.11,9.07,-0.01,-0.08,0.13
2025-12-17 14:28:04.976,-0.22,0.15,9.05,-0.0,-0.08,0.13
2025-12-17 14:28:04.999,-0.21,0.14,9.06,-0.01,-0.08,0.13
2025-12-17 14:28:05.022,-0.23,0.22,9.05,-0.01,-0.08,0.13
2025-12-17 14:28:05.046,-0.2,0.19,9.08,-0.01,-0.08,0.13
2025-12-17 14:28:05.068,-0.13,0.21,9.09,-0.0,-0.08,0.12
2025-12-17 14:28:05.092,-0.11,0.21,9.0,-0.01,-0.08,0.13
2025-12-17 14:28:05.114,-0.17,0.23,9.01,-0.01,-0.08,0.13
2025-12-17 14:28:05.137,-0.19,0.21,9.03,-0.01,-0.08,0.13
2025-12-17 14:28:05.160,-0.16,0.2,9.05,-0.01,-0.08,0.13
2025-12-17 14:28:05.183,-0.23,0.22,9.11,-0.01,-0.08,0.13
2025-12-17 14:28:05.206,-0.28,0.1,9.0,-0.01,-0.08,0.12
2025-12-17 14:28:05.229,-0.39,0.11,9.04,0.0,-0.07,0.13
2025-12-17 14:28:05.252,-0.4,0.24,8.91,-0.0,-0.09,0.13
2025-12-17 14:28:05.275,-0.41,0.16,9.16,-0.0,-0.08,0.13
2025-12-17 14:28:05.298,-0.23,0.24,9.06,0.0,-0.09,0.13
2025-12-17 14:28:05.321,-0.23,0.15,9.04,-0.0,-0.08,0.12
2025-12-17 14:28:05.344,-0.18,0.27,8.9,0.0,-0.08,0.13
2025-12-17 14:28:05.367,-0.11,0.27,9.04,-0.0,-0.08,0.13
2025-12-17 14:28:05.390,0.03,0.27,9.06,-0.01,-0.08,0.13
2025-12-17 14:28:05.413,-0.1,0.22,9.08,-0.01,-0.08,0.13
2025-12-17 14:28:05.436,-0.14,0.23,8.97,-0.01,-0.08,0.12
2025-12-17 14:28:05.459,-0.07,0.24,9.02,-0.01,-0.08,0.13
2025-12-17 14:28:05.483,-0.13,0.12,9.0,-0.01,-0.08,0.13
2025-12-17 14:28:05.505,-0.31,0.17,9.1,-0.02,-0.08,0.13
2025-12-17 14:28:05.529,-0.34,0.11,9.09,-0.01,-0.08,0.13
2025-12-17 14:28:05.551,-0.3,0.07,9.07,-0.01,-0.08,0.12
2025-12-17 14:28:05.574,-0.28,0.05,9.05,-0.01,-0.08,0.13
2025-12-17 14:28:05.597,-0.34,0.12,9.1,-0.0,-0.08,0.12
2025-12-17 14:28:05.620,-0.31,0.15,9.08,-0.01,-0.08,0.13
2025-12-17 14:28:05.643,-0.27,0.28,9.06,-0.0,-0.08,0.13
2025-12-17 14:28:05.667,-0.19,0.21,8.95,-0.01,-0.08,0.13
2025-12-17 14:28:05.690,-0.19,0.24,8.99,-0.01,-0.08,0.13
2025-12-17 14:28:05.712,-0.13,0.14,9.02,-0.01,-0.08,0.13
2025-12-17 14:28:05.736,-0.14,0.17,9.04,-0.01,-0.08,0.13
2025-12-17 14:28:05.758,-0.15,0.15,8.97,-0.01,-0.08,0.13
2025-12-17 14:28:05.781,-0.21,0.16,9.11,-0.01,-0.08,0.12
2025-12-17 14:28:05.805,-0.26,0.09,9.04,-0.01,-0.08,0.12
2025-12-17 14:28:05.828,-0.2,0.16,9.07,-0.0,-0.08,0.12
2025-12-17 14:28:05.851,-0.23,0.19,8.94,-0.01,-0.08,0.13
2025-12-17 14:28:05.873,-0.31,0.17,9.11,-0.01,-0.08,0.12
2025-12-17 14:28:05.896,-0.28,0.11,9.07,-0.01,-0.08,0.12
2025-12-17 14:28:05.919,-0.29,0.18,9.03,-0.01,-0.08,0.13
2025-12-17 14:28:05.942,-0.3,0.26,9.07,-0.01,-0.08,0.13
2025-12-17 14:28:05.965,-0.23,0.16,9.02,-0.01,-0.08,0.13
2025-12-17 14:28:05.988,-0.19,0.23,8.95,-0.01,-0.08,0.13
2025-12-17 14:28:06.011,-0.23,0.18,9.04,-0.01,-0.08,0.13
2025-12-17 14:28:06.034,-0.14,0.17,9.05,-0.01,-0.08,0.12
2025-12-17 14:28:06.057,-0.12,0.22,9.03,-0.01,-0.08,0.13
2025-12-17 14:28:06.080,-0.2,0.17,9.02,-0.01,-0.08,0.13
2025-12-17 14:28:06.103,-0.17,0.2,9.14,-0.01,-0.08,0.12
2025-12-17 14:28:06.126,-0.15,0.15,9.06,-0.0,-0.08,0.13
2025-12-17 14:28:06.150,-0.22,0.18,9.01,-0.01,-0.08,0.13
2025-12-17 14:28:06.173,-0.24,0.2,9.03,-0.0,-0.08,0.13
2025-12-17 14:28:06.195,-0.3,0.11,8.98,-0.0,-0.08,0.13
2025-12-17 14:28:06.219,-0.27,0.2,9.06,-0.0,-0.08,0.12
2025-12-17 14:28:06.241,-0.34,0.21,9.03,-0.01,-0.08,0.13
2025-12-17 14:28:06.264,-0.31,0.22,9.06,-0.0,-0.08,0.13
2025-12-17 14:28:06.287,-0.25,0.17,9.0,-0.01,-0.08,0.13
2025-12-17 14:28:06.310,-0.22,0.15,9.06,-0.01,-0.08,0.13
2025-12-17 14:28:06.333,-0.2,0.16,8.91,-0.01,-0.08,0.13
2025-12-17 14:28:06.356,-0.2,0.11,9.05,-0.01,-0.08,0.13
2025-12-17 14:28:06.379,-0.13,0.24,9.06,-0.01,-0.08,0.13
2025-12-17 14:28:06.403,-0.17,0.19,9.09,-0.01,-0.08,0.12
2025-12-17 14:28:06.425,-0.2,0.13,9.07,-0.01,-0.08,0.13
2025-12-17 14:28:06.448,-0.23,0.2,9.0,-0.01,-0.08,0.13
2025-12-17 14:28:06.471,-0.25,0.2,8.99,-0.01,-0.08,0.13
2025-12-17 14:28:06.494,-0.28,0.2,9.07,-0.01,-0.08,0.13
2025-12-17 14:28:06.517,-0.27,0.22,8.97,-0.0,-0.08,0.13
2025-12-17 14:28:06.540,-0.29,0.21,9.06,-0.01,-0.08,0.13
2025-12-17 14:28:06.564,-0.27,0.13,9.01,-0.01,-0.08,0.12
2025-12-17 14:28:06.587,-0.26,0.22,9.12,-0.01,-0.08,0.12
2025-12-17 14:28:06.610,-0.22,0.24,9.02,-0.01,-0.08,0.12
2025-12-17 14:28:06.632,-0.2,0.15,9.05,-0.01,-0.08,0.13
2025-12-17 14:28:06.655,-0.25,0.16,9.01,-0.01,-0.08,0.12
2025-12-17 14:28:06.678,-0.19,0.26,9.08,-0.01,-0.08,0.12
2025-12-17 14:28:06.701,-0.23,0.24,9.11,-0.01,-0.08,0.13
2025-12-17 14:28:06.724,-0.24,0.14,8.99,-0.01,-0.08,0.13
2025-12-17 14:28:06.747,-0.11,0.23,9.02,-0.01,-0.08,0.13
2025-12-17 14:28:06.770,-0.18,0.22,9.05,-0.01,-0.08,0.13
2025-12-17 14:28:06.793,-0.26,0.27,9.03,-0.01,-0.08,0.12
2025-12-17 14:28:06.816,-0.26,0.24,9.02,-0.01,-0.08,0.13
2025-12-17 14:28:06.839,-0.27,0.15,9.06,-0.01,-0.08,0.13
2025-12-17 14:28:06.862,-0.32,0.2,9.07,-0.01,-0.08,0.13
2025-12-17 14:28:06.885,-0.28,0.17,9.06,-0.01,-0.08,0.12
2025-12-17 14:28:06.908,-0.27,0.14,9.06,-0.01,-0.08,0.13
2025-12-17 14:28:06.931,-0.19,0.16,9.03,-0.01,-0.08,0.13
2025-12-17 14:28:06.954,-0.16,0.18,9.05,-0.01,-0.08,0.13
2025-12-17 14:28:06.978,-0.19,0.2,8.95,-0.01,-0.08,0.12
2025-12-17 14:28:07.000,-0.13,0.15,9.04,-0.01,-0.08,0.13
2025-12-17 14:28:07.024,-0.16,0.16,8.99,-0.01,-0.08,0.13
2025-12-17 14:28:07.047,-0.22,0.21,9.05,-0.01,-0.08,0.13
2025-12-17 14:28:07.070,-0.22,0.2,8.94,-0.01,-0.08,0.13
2025-12-17 14:28:07.092,-0.32,0.2,9.13,-0.01,-0.08,0.13
2025-12-17 14:28:07.115,-0.28,0.19,8.94,-0.01,-0.08,0.13
2025-12-17 14:28:07.138,-0.18,0.1,9.05,-0.01,-0.08,0.13
2025-12-17 14:28:07.161,-0.23,0.07,9.07,-0.01,-0.08,0.12
2025-12-17 14:28:07.184,-0.21,0.19,9.05,-0.01,-0.08,0.13
2025-12-17 14:28:07.207,-0.2,0.18,9.07,-0.01,-0.08,0.13
2025-12-17 14:28:07.230,-0.21,0.2,8.99,-0.01,-0.08,0.13
2025-12-17 14:28:07.253,-0.19,0.16,9.04,-0.01,-0.08,0.13
2025-12-17 14:28:07.276,-0.2,0.15,9.03,-0.01,-0.08,0.13
2025-12-17 14:28:07.299,-0.18,0.21,9.13,-0.01,-0.08,0.13
2025-12-17 14:28:07.322,-0.13,0.2,9.01,-0.01,-0.08,0.13
2025-12-17 14:28:07.345,-0.12,0.25,9.01,-0.01,-0.08,0.13
2025-12-17 14:28:07.368,-0.28,0.26,9.05,-0.01,-0.08,0.13
2025-12-17 14:28:07.392,-0.2,0.11,9.04,-0.01,-0.08,0.13
2025-12-17 14:28:07.415,-0.2,0.14,9.03,-0.01,-0.08,0.12
2025-12-17 14:28:07.438,-0.22,0.15,9.11,-0.01,-0.08,0.13
2025-12-17 14:28:07.461,-0.25,0.17,9.03,-0.01,-0.08,0.13
2025-12-17 14:28:07.483,-0.24,0.15,8.99,-0.01,-0.08,0.13
2025-12-17 14:28:07.506,-0.24,0.19,8.96,-0.0,-0.08,0.13
2025-12-17 14:28:07.529,-0.26,0.2,9.0,-0.0,-0.08,0.13
2025-12-17 14:28:07.552,-0.19,0.17,9.04,-0.01,-0.08,0.13
2025-12-17 14:28:07.575,-0.19,0.13,9.08,-0.0,-0.08,0.13
2025-12-17 14:28:07.598,-0.16,0.24,9.01,-0.01,-0.08,0.13
2025-12-17 14:28:07.621,-0.21,0.17,9.05,-0.01,-0.08,0.12
2025-12-17 14:28:07.644,-0.23,0.23,9.06,-0.01,-0.08,0.13
2025-12-17 14:28:07.670,-0.18,0.18,9.07,-0.01,-0.08,0.13
2025-12-17 14:28:07.690,-0.18,0.14,8.98,-0.01,-0.08,0.13
2025-12-17 14:28:07.713,-0.21,0.15,9.09,-0.01,-0.09,0.13
2025-12-17 14:28:07.736,-0.24,0.16,9.04,-0.01,-0.08,0.13
2025-12-17 14:28:07.759,-0.21,0.21,9.06,-0.01,-0.08,0.13
2025-12-17 14:28:07.783,-0.24,0.13,9.1,-0.01,-0.08,0.13
2025-12-17 14:28:07.806,-0.25,0.21,9.04,-0.01,-0.08,0.13
2025-12-17 14:28:07.828,-0.23,0.25,9.06,-0.01,-0.08,0.13
2025-12-17 14:28:07.851,-0.2,0.1,9.12,-0.0,-0.08,0.13
2025-12-17 14:28:07.874,-0.24,0.18,9.02,-0.01,-0.08,0.12
2025-12-17 14:28:07.897,-0.25,0.2,9.12,-0.01,-0.08,0.12
2025-12-17 14:28:07.921,-0.17,0.16,9.07,-0.01,-0.08,0.12
2025-12-17 14:28:07.944,-0.2,0.17,9.05,-0.01,-0.08,0.13
2025-12-17 14:28:07.966,-0.2,0.2,9.07,-0.01,-0.08,0.13
2025-12-17 14:28:07.989,-0.17,0.15,9.02,-0.01,-0.08,0.12
2025-12-17 14:28:08.013,-0.16,0.13,9.06,-0.01,-0.08,0.13
2025-12-17 14:28:08.036,-0.19,0.22,9.06,-0.01,-0.08,0.13
2025-12-17 14:28:08.059,-0.21,0.24,8.98,-0.01,-0.08,0.13
2025-12-17 14:28:08.082,-0.28,0.26,8.96,-0.01,-0.08,0.13
2025-12-17 14:28:08.104,-0.3,0.15,9.12,-0.01,-0.08,0.13
2025-12-17 14:28:08.127,-0.19,0.19,9.08,-0.01,-0.08,0.13
2025-12-17 14:28:08.150,-0.25,0.2,9.08,-0.01,-0.08,0.13
2025-12-17 14:28:08.173,-0.32,0.16,9.03,-0.01,-0.08,0.13
2025-12-17 14:28:08.196,-0.17,0.12,9.0,-0.01,-0.08,0.12
2025-12-17 14:28:08.219,-0.16,0.17,8.92,-0.01,-0.08,0.12
2025-12-17 14:28:08.242,-0.2,0.18,8.99,-0.01,-0.08,0.13
2025-12-17 14:28:08.265,-0.19,0.14,9.06,-0.01,-0.08,0.13
2025-12-17 14:28:08.288,-0.16,0.26,9.01,-0.0,-0.08,0.12
2025-12-17 14:28:08.311,-0.17,0.19,9.06,-0.01,-0.08,0.12
2025-12-17 14:28:08.334,-0.2,0.12,9.01,-0.01,-0.08,0.13
2025-12-17 14:28:08.357,-0.24,0.16,9.07,-0.01,-0.08,0.13
2025-12-17 14:28:08.381,-0.2,0.16,8.98,-0.01,-0.08,0.12
2025-12-17 14:28:08.404,-0.24,0.16,9.1,-0.01,-0.08,0.12
2025-12-17 14:28:08.426,-0.29,0.26,8.96,-0.01,-0.08,0.13
2025-12-17 14:28:08.449,-0.31,0.23,9.01,-0.01,-0.08,0.13
2025-12-17 14:28:08.472,-0.26,0.18,9.07,-0.01,-0.08,0.13
2025-12-17 14:28:08.495,-0.24,0.21,9.0,-0.01,-0.08,0.13
2025-12-17 14:28:08.518,-0.2,0.16,9.01,-0.01,-0.08,0.13
2025-12-17 14:28:08.541,-0.16,0.22,9.02,-0.01,-0.08,0.13
2025-12-17 14:28:08.564,-0.15,0.24,9.05,-0.01,-0.08,0.13
2025-12-17 14:28:08.587,-0.16,0.16,9.03,-0.01,-0.08,0.13
2025-12-17 14:28:08.610,-0.17,0.18,9.03,-0.01,-0.08,0.12
2025-12-17 14:28:08.633,-0.21,0.21,9.0,-0.01,-0.08,0.13
2025-12-17 14:28:08.657,-0.22,0.14,9.05,-0.01,-0.08,0.12
2025-12-17 14:28:08.680,-0.23,0.16,9.01,-0.01,-0.08,0.13
2025-12-17 14:28:08.703,-0.28,0.14,9.05,-0.01,-0.08,0.12
2025-12-17 14:28:08.725,-0.25,0.1,9.02,-0.0,-0.08,0.13
2025-12-17 14:28:08.748,-0.33,0.2,9.01,-0.01,-0.08,0.13
2025-12-17 14:28:08.771,-0.32,0.17,9.08,-0.01,-0.08,0.12
2025-12-17 14:28:08.794,-0.19,0.15,9.08,-0.01,-0.08,0.13
2025-12-17 14:28:08.817,-0.21,0.16,9.02,-0.01,-0.08,0.13
2025-12-17 14:28:08.840,-0.23,0.23,9.03,-0.01,-0.08,0.13
2025-12-17 14:28:08.864,-0.19,0.2,9.01,-0.01,-0.08,0.13
2025-12-17 14:28:08.887,-0.24,0.23,9.05,-0.01,-0.08,0.13
2025-12-17 14:28:08.910,-0.14,0.21,9.05,-0.0,-0.08,0.13
2025-12-17 14:28:08.932,-0.14,0.12,9.02,-0.01,-0.08,0.12
2025-12-17 14:28:08.955,-0.16,0.14,8.96,-0.01,-0.08,0.13
2025-12-17 14:28:08.979,-0.18,0.21,9.07,-0.01,-0.08,0.13
2025-12-17 14:28:09.002,-0.24,0.12,9.08,-0.01,-0.08,0.13
2025-12-17 14:28:09.025,-0.26,0.13,8.99,-0.0,-0.08,0.13
2025-12-17 14:28:09.048,-0.23,0.16,9.12,-0.01,-0.08,0.13
2025-12-17 14:28:09.070,-0.31,0.17,9.05,-0.0,-0.08,0.13
2025-12-17 14:28:09.093,-0.35,0.2,9.04,-0.01,-0.08,0.13
2025-12-17 14:28:09.116,-0.3,0.25,9.03,-0.01,-0.08,0.13
2025-12-17 14:28:09.139,-0.16,0.19,9.05,-0.01,-0.08,0.13
2025-12-17 14:28:09.162,-0.18,0.19,9.04,-0.01,-0.08,0.13
2025-12-17 14:28:09.185,-0.15,0.16,9.07,-0.01,-0.08,0.13
2025-12-17 14:28:09.208,-0.17,0.24,9.04,-0.01,-0.08,0.13
2025-12-17 14:28:09.231,-0.19,0.16,9.06,-0.01,-0.08,0.13
2025-12-17 14:28:09.254,-0.21,0.18,9.08,-0.01,-0.08,0.13
2025-12-17 14:28:09.277,-0.21,0.13,9.06,-0.01,-0.08,0.13
2025-12-17 14:28:09.300,-0.18,0.15,8.94,-0.01,-0.08,0.13
2025-12-17 14:28:09.324,-0.24,0.22,8.96,-0.01,-0.08,0.13
2025-12-17 14:28:09.347,-0.24,0.17,9.1,-0.01,-0.08,0.13
2025-12-17 14:28:09.369,-0.29,0.19,9.14,-0.01,-0.08,0.13
2025-12-17 14:28:09.392,-0.27,0.2,9.05,-0.01,-0.08,0.13
2025-12-17 14:28:09.415,-0.3,0.12,9.02,-0.01,-0.08,0.13
2025-12-17 14:28:09.438,-0.2,0.18,9.05,-0.01,-0.08,0.13
2025-12-17 14:28:09.461,-0.24,0.2,9.01,-0.01,-0.08,0.13
2025-12-17 14:28:09.485,-0.07,0.14,9.04,-0.01,-0.08,0.12
2025-12-17 14:28:09.507,-0.13,0.11,8.96,-0.01,-0.08,0.12
2025-12-17 14:28:09.530,-0.21,0.09,8.94,-0.0,-0.08,0.12
2025-12-17 14:28:09.554,-0.22,0.2,8.99,-0.01,-0.08,0.13
2025-12-17 14:28:09.577,-0.21,0.11,9.06,-0.0,-0.08,0.13
2025-12-17 14:28:09.600,-0.23,0.18,8.96,-0.01,-0.08,0.13
2025-12-17 14:28:09.622,-0.2,0.17,9.05,-0.0,-0.08,0.13
2025-12-17 14:28:09.645,-0.33,0.09,9.0,-0.01,-0.08,0.13
2025-12-17 14:28:09.668,-0.38,0.16,8.97,-0.01,-0.08,0.12
2025-12-17 14:28:09.691,-0.31,0.24,9.0,-0.01,-0.08,0.13
2025-12-17 14:28:09.714,-0.19,0.18,9.08,-0.01,-0.08,0.13
2025-12-17 14:28:09.737,-0.17,0.17,8.99,-0.01,-0.08,0.13
2025-12-17 14:28:09.760,-0.14,0.16,9.07,-0.01,-0.08,0.13
2025-12-17 14:28:09.783,-0.16,0.14,9.09,-0.01,-0.08,0.13
2025-12-17 14:28:09.806,-0.17,0.21,9.02,-0.01,-0.08,0.12
2025-12-17 14:28:09.829,-0.2,0.2,8.99,-0.01,-0.08,0.13
2025-12-17 14:28:09.852,-0.24,0.17,9.01,-0.01,-0.08,0.13
2025-12-17 14:28:09.875,-0.12,0.2,9.02,-0.01,-0.08,0.13
2025-12-17 14:28:09.898,-0.12,0.13,9.07,-0.0,-0.08,0.13
2025-12-17 14:28:09.921,-0.27,0.2,9.05,-0.01,-0.08,0.12
2025-12-17 14:28:09.944,-0.26,0.2,9.04,-0.01,-0.08,0.13
2025-12-17 14:28:09.967,-0.3,0.23,9.07,-0.01,-0.08,0.13
2025-12-17 14:28:09.990,-0.26,0.21,9.08,-0.01,-0.08,0.13
2025-12-17 14:28:10.014,-0.29,0.19,9.0,-0.01,-0.08,0.13
2025-12-17 14:28:10.037,-0.21,0.11,9.03,-0.01,-0.08,0.13
2025-12-17 14:28:10.060,-0.22,0.14,8.95,-0.01,-0.08,0.13
2025-12-17 14:28:10.082,-0.08,0.19,9.0,-0.01,-0.08,0.13
2025-12-17 14:28:10.105,-0.15,0.22,9.1,-0.01,-0.08,0.12
2025-12-17 14:28:10.128,-0.11,0.13,9.01,-0.0,-0.08,0.13
2025-12-17 14:28:10.151,-0.11,0.16,9.08,-0.0,-0.08,0.12
2025-12-17 14:28:10.174,-0.15,0.19,9.01,-0.01,-0.08,0.13
2025-12-17 14:28:10.197,-0.25,0.16,8.98,-0.01,-0.08,0.12
2025-12-17 14:28:10.220,-0.24,0.29,8.93,-0.01,-0.08,0.12
2025-12-17 14:28:10.243,-0.29,0.25,9.05,-0.01,-0.08,0.13
2025-12-17 14:28:10.266,-0.25,0.15,9.05,-0.01,-0.08,0.13
2025-12-17 14:28:10.289,-0.32,0.14,9.03,-0.01,-0.08,0.13
2025-12-17 14:28:10.313,-0.32,0.23,9.02,-0.01,-0.08,0.12
2025-12-17 14:28:10.336,-0.27,0.17,9.04,-0.01,-0.08,0.13
2025-12-17 14:28:10.359,-0.19,0.15,9.05,-0.01,-0.08,0.13
2025-12-17 14:28:10.382,-0.24,0.22,9.05,-0.01,-0.08,0.13
2025-12-17 14:28:10.405,-0.2,0.2,8.99,-0.01,-0.08,0.13
2025-12-17 14:28:10.428,-0.17,0.19,9.06,-0.01,-0.08,0.13
2025-12-17 14:28:10.450,-0.12,0.2,9.08,-0.01,-0.08,0.13
2025-12-17 14:28:10.473,-0.15,0.18,9.09,-0.01,-0.08,0.13
2025-12-17 14:28:10.496,-0.21,0.21,9.05,-0.0,-0.08,0.12
2025-12-17 14:28:10.519,-0.23,0.24,9.02,-0.01,-0.08,0.13
2025-12-17 14:28:10.542,-0.25,0.21,8.97,-0.01,-0.08,0.13
2025-12-17 14:28:10.565,-0.33,0.16,9.06,-0.01,-0.08,0.12
2025-12-17 14:28:10.589,-0.33,0.21,9.0,-0.01,-0.08,0.13
2025-12-17 14:28:10.612,-0.29,0.15,8.98,-0.01,-0.08,0.13
2025-12-17 14:28:10.635,-0.25,0.21,9.03,-0.01,-0.08,0.13
2025-12-17 14:28:10.659,-0.22,0.21,9.11,-0.01,-0.08,0.13
2025-12-17 14:28:10.681,-0.17,0.1,8.99,-0.01,-0.08,0.13
2025-12-17 14:28:10.704,-0.08,0.13,9.04,-0.01,-0.08,0.13
2025-12-17 14:28:10.726,-0.07,0.24,9.03,-0.01,-0.08,0.12
2025-12-17 14:28:10.749,-0.18,0.17,9.0,-0.01,-0.08,0.13
2025-12-17 14:28:10.772,-0.19,0.24,9.0,-0.01,-0.08,0.13
2025-12-17 14:28:10.795,-0.17,0.23,9.02,-0.01,-0.08,0.13
2025-12-17 14:28:10.818,-0.18,0.17,9.08,-0.01,-0.08,0.12
2025-12-17 14:28:10.841,-0.27,0.13,9.04,-0.01,-0.08,0.13
2025-12-17 14:28:10.864,-0.32,0.19,8.98,-0.01,-0.08,0.13
2025-12-17 14:28:10.887,-0.3,0.21,8.99,-0.01,-0.08,0.13
2025-12-17 14:28:10.910,-0.34,0.21,8.97,-0.01,-0.08,0.12
2025-12-17 14:28:10.933,-0.29,0.18,9.08,-0.01,-0.08,0.13
2025-12-17 14:28:10.956,-0.23,0.25,8.97,-0.01,-0.08,0.13
2025-12-17 14:28:10.979,-0.22,0.18,9.03,-0.01,-0.08,0.13
2025-12-17 14:28:11.003,-0.12,0.13,9.04,-0.01,-0.08,0.13
2025-12-17 14:28:11.026,-0.2,0.24,9.04,-0.01,-0.08,0.13
2025-12-17 14:28:11.049,-0.15,0.2,9.0,-0.01,-0.08,0.13
2025-12-17 14:28:11.072,-0.11,0.22,8.98,-0.01,-0.08,0.12
2025-12-17 14:28:11.094,-0.17,0.16,9.12,-0.01,-0.08,0.13
2025-12-17 14:28:11.117,-0.15,0.14,9.01,-0.01,-0.08,0.13
2025-12-17 14:28:11.140,-0.28,0.12,9.03,-0.0,-0.08,0.13
2025-12-17 14:28:11.163,-0.19,0.2,9.02,-0.01,-0.08,0.13
2025-12-17 14:28:11.186,-0.28,0.19,9.01,-0.0,-0.08,0.13
2025-12-17 14:28:11.209,-0.25,0.2,9.03,-0.01,-0.08,0.13
2025-12-17 14:28:11.232,-0.26,0.16,9.0,-0.01,-0.08,0.13
2025-12-17 14:28:11.255,-0.25,0.18,9.03,-0.01,-0.08,0.13
2025-12-17 14:28:11.278,-0.19,0.13,9.05,-0.01,-0.08,0.13
2025-12-17 14:28:11.301,-0.2,0.17,9.11,-0.01,-0.09,0.12
2025-12-17 14:28:11.324,-0.18,0.15,9.04,-0.01,-0.08,0.13
2025-12-17 14:28:11.348,-0.26,0.11,9.02,-0.01,-0.08,0.13
2025-12-17 14:28:11.371,-0.22,0.16,9.09,-0.01,-0.08,0.13
2025-12-17 14:28:11.394,-0.15,0.11,9.07,-0.01,-0.08,0.12
2025-12-17 14:28:11.416,-0.2,0.11,9.0,-0.0,-0.08,0.13
2025-12-17 14:28:11.439,-0.29,0.15,9.01,-0.01,-0.08,0.13
2025-12-17 14:28:11.462,-0.22,0.17,9.09,-0.01,-0.08,0.13
2025-12-17 14:28:11.486,-0.24,0.23,8.99,-0.01,-0.08,0.13
2025-12-17 14:28:11.509,-0.22,0.25,9.03,-0.01,-0.08,0.13
2025-12-17 14:28:11.532,-0.28,0.11,9.05,-0.01,-0.08,0.13
2025-12-17 14:28:11.554,-0.24,0.12,8.92,-0.01,-0.08,0.13
2025-12-17 14:28:11.577,-0.25,0.18,9.03,-0.01,-0.08,0.13
2025-12-17 14:28:11.600,-0.24,0.22,9.09,-0.01,-0.08,0.13
2025-12-17 14:28:11.623,-0.17,0.21,9.09,-0.01,-0.08,0.13
2025-12-17 14:28:11.646,-0.13,0.2,9.1,-0.01,-0.08,0.13
2025-12-17 14:28:11.669,-0.17,0.18,9.02,-0.01,-0.08,0.13
2025-12-17 14:28:11.692,-0.2,0.19,8.95,-0.01,-0.08,0.13
2025-12-17 14:28:11.715,-0.24,0.17,8.95,-0.01,-0.08,0.13
2025-12-17 14:28:11.738,-0.24,0.13,9.09,-0.0,-0.08,0.12
2025-12-17 14:28:11.761,-0.24,0.2,9.01,-0.01,-0.08,0.12
2025-12-17 14:28:11.785,-0.22,0.22,9.02,-0.01,-0.08,0.13
2025-12-17 14:28:11.808,-0.25,0.22,9.02,-0.01,-0.08,0.13
2025-12-17 14:28:11.830,-0.26,0.17,9.07,-0.01,-0.08,0.13
2025-12-17 14:28:11.854,-0.24,0.15,9.04,-0.01,-0.08,0.13
2025-12-17 14:28:11.876,-0.26,0.14,9.07,-0.01,-0.08,0.13
2025-12-17 14:28:11.899,-0.2,0.12,9.08,-0.01,-0.08,0.13
2025-12-17 14:28:11.923,-0.22,0.16,9.08,-0.01,-0.08,0.13
2025-12-17 14:28:11.945,-0.2,0.17,9.11,-0.01,-0.08,0.13
2025-12-17 14:28:11.968,-0.23,0.11,9.04,-0.01,-0.08,0.13
2025-12-17 14:28:11.992,-0.19,0.17,8.94,-0.01,-0.08,0.13
2025-12-17 14:28:12.014,-0.23,0.28,9.02,-0.01,-0.08,0.12
2025-12-17 14:28:12.037,-0.19,0.21,9.02,-0.01,-0.08,0.13
2025-12-17 14:28:12.061,-0.22,0.24,8.97,-0.0,-0.08,0.13
2025-12-17 14:28:12.084,-0.2,0.17,9.05,-0.01,-0.08,0.13
2025-12-17 14:28:12.107,-0.22,0.21,8.97,-0.01,-0.08,0.12
2025-12-17 14:28:12.130,-0.25,0.16,9.06,-0.01,-0.08,0.13
2025-12-17 14:28:12.152,-0.26,0.12,8.98,-0.01,-0.08,0.13
2025-12-17 14:28:12.175,-0.22,0.19,9.04,-0.01,-0.08,0.12
2025-12-17 14:28:12.198,-0.26,0.14,9.0,-0.01,-0.08,0.13
2025-12-17 14:28:12.221,-0.3,0.12,9.04,-0.01,-0.08,0.13
2025-12-17 14:28:12.244,-0.21,0.16,9.05,-0.01,-0.08,0.13
2025-12-17 14:28:12.267,-0.18,0.12,9.09,-0.01,-0.08,0.13
2025-12-17 14:28:12.290,-0.24,0.17,9.05,-0.0,-0.08,0.13
2025-12-17 14:28:12.313,-0.23,0.22,9.04,-0.0,-0.08,0.13
2025-12-17 14:28:12.336,-0.25,0.23,9.03,-0.01,-0.08,0.13
2025-12-17 14:28:12.359,-0.23,0.31,8.93,-0.01,-0.08,0.13
2025-12-17 14:28:12.383,-0.14,0.18,9.01,-0.01,-0.08,0.13
2025-12-17 14:28:12.406,-0.16,0.23,9.17,-0.01,-0.08,0.12
2025-12-17 14:28:12.429,-0.23,0.13,9.05,-0.01,-0.08,0.13
2025-12-17 14:28:12.452,-0.2,0.14,8.97,-0.01,-0.08,0.12
2025-12-17 14:28:12.475,-0.23,0.2,9.07,-0.01,-0.08,0.13
2025-12-17 14:28:12.498,-0.26,0.14,9.13,-0.01,-0.08,0.12
2025-12-17 14:28:12.521,-0.23,0.12,9.05,-0.01,-0.08,0.13
2025-12-17 14:28:12.543,-0.28,0.19,9.07,-0.0,-0.08,0.13
2025-12-17 14:28:12.566,-0.22,0.12,9.07,-0.0,-0.08,0.13
2025-12-17 14:28:12.589,-0.23,0.22,8.98,-0.0,-0.08,0.13
2025-12-17 14:28:12.612,-0.23,0.26,9.02,-0.01,-0.08,0.13
2025-12-17 14:28:12.635,-0.24,0.26,9.03,-0.0,-0.08,0.13
2025-12-17 14:28:12.658,-0.24,0.22,8.98,-0.01,-0.08,0.13
2025-12-17 14:28:12.681,-0.22,0.2,9.0,-0.01,-0.08,0.12
2025-12-17 14:28:12.704,-0.23,0.16,9.08,-0.01,-0.08,0.13
2025-12-17 14:28:12.727,-0.21,0.14,9.1,-0.01,-0.08,0.12
2025-12-17 14:28:12.750,-0.2,0.21,9.0,-0.01,-0.08,0.13
2025-12-17 14:28:12.773,-0.2,0.15,8.99,-0.01,-0.08,0.13
2025-12-17 14:28:12.797,-0.22,0.16,9.0,-0.01,-0.08,0.13
2025-12-17 14:28:12.820,-0.28,0.14,9.07,-0.0,-0.08,0.13
2025-12-17 14:28:12.842,-0.17,0.11,9.02,-0.0,-0.08,0.13
2025-12-17 14:28:12.865,-0.33,0.24,9.04,-0.0,-0.08,0.13
2025-12-17 14:28:12.888,-0.33,0.25,8.95,-0.01,-0.08,0.13
2025-12-17 14:28:12.912,-0.19,0.18,9.07,-0.01,-0.08,0.13
2025-12-17 14:28:12.935,-0.14,0.19,8.96,-0.01,-0.08,0.13
2025-12-17 14:28:12.958,-0.26,0.22,9.04,-0.01,-0.08,0.13
2025-12-17 14:28:12.981,-0.19,0.2,9.09,-0.01,-0.08,0.12
2025-12-17 14:28:13.004,-0.17,0.06,9.07,-0.01,-0.08,0.13
2025-12-17 14:28:13.027,-0.22,0.18,8.97,-0.01,-0.08,0.13
2025-12-17 14:28:13.050,-0.23,0.17,9.03,-0.01,-0.08,0.13
2025-12-17 14:28:13.072,-0.27,0.1,9.06,-0.01,-0.08,0.13
2025-12-17 14:28:13.095,-0.28,0.18,9.06,-0.01,-0.08,0.13
2025-12-17 14:28:13.118,-0.25,0.14,8.96,-0.01,-0.08,0.13
2025-12-17 14:28:13.141,-0.18,0.15,9.06,-0.0,-0.08,0.13
2025-12-17 14:28:13.164,-0.3,0.19,9.02,-0.0,-0.08,0.12
2025-12-17 14:28:13.187,-0.3,0.21,9.08,-0.01,-0.08,0.13
2025-12-17 14:28:13.210,-0.18,0.18,8.99,-0.01,-0.08,0.13
2025-12-17 14:28:13.233,-0.25,0.28,9.03,-0.01,-0.08,0.13
2025-12-17 14:28:13.256,-0.16,0.17,9.06,-0.01,-0.08,0.13
2025-12-17 14:28:13.279,-0.18,0.17,9.04,-0.01,-0.08,0.13
2025-12-17 14:28:13.302,-0.18,0.24,9.05,-0.01,-0.08,0.13
2025-12-17 14:28:13.326,-0.16,0.17,9.05,-0.01,-0.08,0.13
2025-12-17 14:28:13.349,-0.23,0.12,9.12,-0.01,-0.08,0.13
2025-12-17 14:28:13.371,-0.26,0.22,9.05,-0.01,-0.08,0.13
2025-12-17 14:28:13.394,-0.18,0.12,9.07,-0.01,-0.08,0.13
2025-12-17 14:28:13.417,-0.25,0.12,9.09,-0.0,-0.08,0.12
2025-12-17 14:28:13.440,-0.24,0.18,8.96,-0.0,-0.08,0.13
2025-12-17 14:28:13.463,-0.24,0.25,9.05,-0.01,-0.08,0.13
2025-12-17 14:28:13.486,-0.21,0.27,8.97,-0.01,-0.08,0.13
2025-12-17 14:28:13.509,-0.23,0.27,9.05,-0.01,-0.08,0.12
2025-12-17 14:28:13.532,-0.25,0.21,8.96,-0.01,-0.08,0.13
2025-12-17 14:28:13.555,-0.23,0.1,9.04,-0.01,-0.08,0.13
2025-12-17 14:28:13.578,-0.14,0.14,9.09,-0.01,-0.08,0.13
2025-12-17 14:28:13.602,-0.22,0.19,9.09,-0.01,-0.08,0.12
2025-12-17 14:28:13.625,-0.24,0.12,9.08,-0.01,-0.08,0.12
2025-12-17 14:28:13.648,-0.2,0.17,8.97,-0.01,-0.08,0.13
2025-12-17 14:28:13.671,-0.29,0.12,9.14,-0.01,-0.08,0.12
2025-12-17 14:28:13.694,-0.21,0.16,9.03,-0.0,-0.08,0.13
2025-12-17 14:28:13.716,-0.22,0.16,9.02,-0.0,-0.08,0.13
2025-12-17 14:28:13.739,-0.13,0.25,9.03,-0.01,-0.08,0.13
2025-12-17 14:28:13.762,-0.17,0.3,9.0,-0.01,-0.07,0.13
2025-12-17 14:28:13.785,-0.24,0.27,8.97,-0.01,-0.08,0.13
2025-12-17 14:28:13.808,-0.19,0.24,9.04,-0.01,-0.08,0.13
2025-12-17 14:28:13.831,-0.17,0.16,9.02,-0.01,-0.08,0.13
2025-12-17 14:28:13.854,-0.16,0.15,9.04,-0.01,-0.08,0.12
2025-12-17 14:28:13.877,-0.2,0.15,9.07,-0.01,-0.08,0.12
2025-12-17 14:28:13.900,-0.21,0.2,9.11,-0.01,-0.08,0.13
2025-12-17 14:28:13.923,-0.22,0.15,9.02,-0.0,-0.08,0.13
2025-12-17 14:28:13.946,-0.17,0.19,9.14,-0.01,-0.08,0.13
2025-12-17 14:28:13.970,-0.29,0.15,8.97,-0.0,-0.08,0.13
2025-12-17 14:28:13.992,-0.21,0.13,8.97,-0.01,-0.08,0.13
2025-12-17 14:28:14.015,-0.23,0.16,9.04,-0.0,-0.08,0.13
2025-12-17 14:28:14.038,-0.21,0.18,9.02,-0.0,-0.08,0.13
2025-12-17 14:28:14.062,-0.2,0.25,9.09,-0.01,-0.08,0.13
2025-12-17 14:28:14.084,-0.22,0.1,8.99,-0.01,-0.08,0.12
2025-12-17 14:28:14.108,-0.24,0.19,9.03,-0.01,-0.08,0.13
2025-12-17 14:28:14.131,-0.21,0.2,9.05,-0.01,-0.08,0.12
2025-12-17 14:28:14.154,-0.25,0.2,9.06,-0.01,-0.08,0.13
2025-12-17 14:28:14.177,-0.24,0.17,9.05,-0.01,-0.08,0.13
2025-12-17 14:28:14.200,-0.18,0.13,9.09,-0.01,-0.08,0.12
2025-12-17 14:28:14.223,-0.24,0.11,9.05,-0.0,-0.08,0.13
2025-12-17 14:28:14.245,-0.26,0.16,9.01,-0.0,-0.08,0.13
2025-12-17 14:28:14.268,-0.22,0.16,8.98,-0.01,-0.08,0.13
2025-12-17 14:28:14.291,-0.19,0.2,9.03,-0.01,-0.08,0.13
2025-12-17 14:28:14.314,-0.26,0.24,9.03,-0.01,-0.08,0.13
2025-12-17 14:28:14.337,-0.24,0.22,9.0,-0.01,-0.08,0.13
2025-12-17 14:28:14.360,-0.19,0.17,8.99,-0.01,-0.08,0.13
2025-12-17 14:28:14.383,-0.24,0.2,9.03,-0.01,-0.08,0.13
2025-12-17 14:28:14.406,-0.2,0.21,9.02,-0.01,-0.08,0.13
2025-12-17 14:28:14.430,-0.25,0.14,9.08,-0.01,-0.08,0.13
2025-12-17 14:28:14.453,-0.24,0.11,9.07,-0.01,-0.08,0.13
2025-12-17 14:28:14.476,-0.17,0.13,9.04,-0.0,-0.08,0.13
2025-12-17 14:28:14.499,-0.21,0.11,9.05,-0.01,-0.08,0.13
2025-12-17 14:28:14.522,-0.23,0.19,9.03,-0.01,-0.08,0.13
2025-12-17 14:28:14.545,-0.21,0.22,9.0,-0.01,-0.08,0.13
2025-12-17 14:28:14.568,-0.2,0.19,9.05,-0.01,-0.08,0.13
2025-12-17 14:28:14.591,-0.14,0.3,8.93,-0.01,-0.08,0.13
2025-12-17 14:28:14.613,-0.17,0.23,9.06,-0.01,-0.08,0.12
2025-12-17 14:28:14.636,-0.21,0.19,8.97,-0.01,-0.08,0.13
2025-12-17 14:28:14.659,-0.21,0.19,9.0,-0.01,-0.08,0.13
2025-12-17 14:28:14.682,-0.23,0.15,9.05,-0.01,-0.08,0.13
2025-12-17 14:28:14.705,-0.25,0.11,9.09,-0.01,-0.08,0.13
2025-12-17 14:28:14.728,-0.19,0.14,9.05,-0.01,-0.08,0.13
2025-12-17 14:28:14.751,-0.22,0.07,9.05,-0.01,-0.08,0.13
2025-12-17 14:28:14.774,-0.11,0.06,9.11,-0.0,-0.08,0.13
2025-12-17 14:28:14.798,-0.24,0.14,9.04,-0.0,-0.08,0.13
2025-12-17 14:28:14.820,-0.22,0.22,8.95,-0.01,-0.08,0.13
2025-12-17 14:28:14.843,-0.27,0.22,9.0,-0.01,-0.08,0.13
2025-12-17 14:28:14.867,-0.24,0.27,8.98,-0.01,-0.08,0.12
2025-12-17 14:28:14.890,-0.27,0.18,9.0,-0.01,-0.08,0.13
2025-12-17 14:28:14.913,-0.17,0.18,9.02,-0.01,-0.08,0.13
2025-12-17 14:28:14.936,-0.18,0.22,8.94,-0.01,-0.08,0.12
2025-12-17 14:28:14.959,-0.28,0.19,9.0,-0.01,-0.08,0.13
2025-12-17 14:28:14.981,-0.22,0.19,9.12,-0.01,-0.08,0.12
2025-12-17 14:28:15.004,-0.25,0.17,8.93,-0.01,-0.08,0.12
2025-12-17 14:28:15.027,-0.19,0.16,9.05,-0.01,-0.08,0.13
2025-12-17 14:28:15.050,-0.17,0.07,9.11,-0.01,-0.08,0.13
2025-12-17 14:28:15.073,-0.26,0.17,9.04,-0.0,-0.08,0.13
2025-12-17 14:28:15.096,-0.22,0.19,9.04,-0.0,-0.08,0.13
2025-12-17 14:28:15.119,-0.18,0.17,8.91,-0.0,-0.08,0.13
2025-12-17 14:28:15.142,-0.17,0.28,9.02,-0.01,-0.08,0.13
2025-12-17 14:28:15.166,-0.23,0.23,8.96,-0.01,-0.08,0.13
2025-12-17 14:28:15.189,-0.11,0.19,9.15,-0.01,-0.08,0.13
2025-12-17 14:28:15.212,-0.19,0.15,9.04,-0.01,-0.08,0.13
2025-12-17 14:28:15.235,-0.23,0.13,9.0,-0.01,-0.08,0.13
2025-12-17 14:28:15.258,-0.23,0.14,9.02,-0.01,-0.08,0.13
2025-12-17 14:28:15.281,-0.28,0.11,9.13,-0.01,-0.08,0.13
2025-12-17 14:28:15.304,-0.29,0.15,9.03,-0.01,-0.08,0.12
2025-12-17 14:28:15.327,-0.26,0.08,9.07,-0.01,-0.08,0.13
2025-12-17 14:28:15.349,-0.24,0.07,8.98,-0.0,-0.08,0.13
2025-12-17 14:28:15.372,-0.27,0.16,9.02,-0.0,-0.08,0.13
2025-12-17 14:28:15.396,-0.23,0.25,9.06,-0.0,-0.08,0.13
2025-12-17 14:28:15.419,-0.14,0.28,9.08,-0.0,-0.08,0.13
2025-12-17 14:28:15.442,-0.16,0.28,9.03,-0.01,-0.08,0.13
2025-12-17 14:28:15.465,-0.21,0.25,9.04,-0.01,-0.08,0.13
2025-12-17 14:28:15.487,-0.18,0.22,9.01,-0.01,-0.08,0.13
2025-12-17 14:28:15.510,-0.17,0.12,9.18,-0.01,-0.08,0.13
2025-12-17 14:28:15.533,-0.16,0.13,9.01,-0.01,-0.08,0.12
2025-12-17 14:28:15.556,-0.27,0.17,8.95,-0.01,-0.08,0.13
2025-12-17 14:28:15.580,-0.3,0.17,9.11,-0.01,-0.08,0.13
2025-12-17 14:28:15.603,-0.22,0.12,9.03,-0.01,-0.08,0.13
2025-12-17 14:28:15.626,-0.25,0.21,9.07,-0.01,-0.08,0.13
2025-12-17 14:28:15.648,-0.19,0.05,9.03,-0.01,-0.08,0.13
2025-12-17 14:28:15.671,-0.2,0.18,9.03,-0.0,-0.08,0.13
2025-12-17 14:28:15.694,-0.26,0.26,9.0,-0.01,-0.08,0.13
2025-12-17 14:28:15.717,-0.21,0.29,9.0,-0.0,-0.08,0.13
2025-12-17 14:28:15.740,-0.23,0.23,8.98,-0.01,-0.08,0.12
2025-12-17 14:28:15.763,-0.17,0.21,8.98,-0.01,-0.08,0.13
2025-12-17 14:28:15.786,-0.16,0.29,9.16,-0.01,-0.08,0.13
2025-12-17 14:28:15.810,-0.18,0.15,8.97,-0.01,-0.08,0.13
2025-12-17 14:28:15.833,-0.19,0.16,8.99,-0.01,-0.08,0.12
2025-12-17 14:28:15.856,-0.26,0.11,9.06,-0.01,-0.08,0.13
2025-12-17 14:28:15.879,-0.29,0.06,9.08,-0.01,-0.08,0.13
2025-12-17 14:28:15.901,-0.27,0.23,9.04,-0.0,-0.08,0.12
2025-12-17 14:28:15.924,-0.24,0.1,9.04,-0.0,-0.08,0.13
2025-12-17 14:28:15.947,-0.15,0.1,9.06,-0.0,-0.08,0.13
2025-12-17 14:28:15.970,-0.2,0.2,8.95,-0.0,-0.08,0.12
2025-12-17 14:28:15.993,-0.22,0.22,9.04,-0.01,-0.08,0.13
2025-12-17 14:28:16.016,-0.2,0.25,8.99,-0.01,-0.08,0.13
2025-12-17 14:28:16.039,-0.25,0.23,9.0,-0.01,-0.08,0.13
2025-12-17 14:28:16.062,-0.17,0.22,9.07,-0.01,-0.08,0.13
2025-12-17 14:28:16.085,-0.15,0.17,9.05,-0.01,-0.08,0.13
2025-12-17 14:28:16.108,-0.18,0.13,8.97,-0.01,-0.08,0.13
2025-12-17 14:28:16.132,-0.2,0.17,9.13,-0.01,-0.08,0.12
2025-12-17 14:28:16.155,-0.25,0.14,9.05,-0.01,-0.08,0.13
2025-12-17 14:28:16.178,-0.23,0.16,9.03,-0.01,-0.08,0.13
2025-12-17 14:28:16.201,-0.23,0.12,9.04,-0.01,-0.08,0.13
2025-12-17 14:28:16.224,-0.26,0.13,9.0,-0.01,-0.08,0.13
2025-12-17 14:28:16.247,-0.28,0.19,9.04,-0.01,-0.08,0.13
2025-12-17 14:28:16.270,-0.2,0.23,8.93,-0.01,-0.08,0.13
2025-12-17 14:28:16.293,-0.24,0.23,8.97,-0.01,-0.08,0.13
2025-12-17 14:28:16.315,-0.19,0.21,9.04,-0.01,-0.08,0.12
2025-12-17 14:28:16.338,-0.21,0.14,8.99,-0.01,-0.08,0.13
2025-12-17 14:28:16.362,-0.18,0.15,9.02,-0.01,-0.08,0.13
2025-12-17 14:28:16.385,-0.11,0.17,9.07,-0.01,-0.08,0.12
2025-12-17 14:28:16.407,-0.24,0.07,9.05,-0.01,-0.08,0.12
2025-12-17 14:28:16.430,-0.24,0.08,9.07,-0.01,-0.08,0.13
2025-12-17 14:28:16.453,-0.24,0.09,8.89,-0.0,-0.08,0.13
2025-12-17 14:28:16.476,-0.24,0.12,9.01,-0.0,-0.08,0.13
2025-12-17 14:28:16.499,-0.28,0.16,9.08,-0.0,-0.08,0.13
2025-12-17 14:28:16.522,-0.29,0.18,8.9,-0.0,-0.08,0.13
2025-12-17 14:28:16.545,-0.22,0.26,9.02,-0.0,-0.08,0.13
2025-12-17 14:28:16.568,-0.23,0.23,9.1,-0.01,-0.08,0.13
2025-12-17 14:28:16.591,-0.24,0.21,9.08,-0.01,-0.08,0.12
2025-12-17 14:28:16.614,-0.17,0.26,9.01,-0.01,-0.08,0.13
2025-12-17 14:28:16.637,-0.17,0.19,9.01,-0.01,-0.08,0.13
2025-12-17 14:28:16.660,-0.22,0.18,9.12,-0.01,-0.08,0.13
2025-12-17 14:28:16.683,-0.27,0.19,9.05,-0.01,-0.08,0.13
2025-12-17 14:28:16.706,-0.22,0.1,9.0,-0.01,-0.08,0.12
2025-12-17 14:28:16.729,-0.24,0.16,9.1,-0.0,-0.08,0.13
2025-12-17 14:28:16.752,-0.23,0.19,9.03,-0.01,-0.08,0.13
2025-12-17 14:28:16.775,-0.18,0.15,9.12,-0.01,-0.08,0.13
2025-12-17 14:28:16.799,-0.22,0.1,9.06,-0.0,-0.08,0.13
2025-12-17 14:28:16.822,-0.18,0.2,9.1,-0.01,-0.08,0.12
2025-12-17 14:28:16.845,-0.22,0.15,9.0,-0.01,-0.08,0.13
2025-12-17 14:28:16.868,-0.23,0.23,9.05,-0.01,-0.08,0.13
2025-12-17 14:28:16.891,-0.2,0.25,8.92,-0.01,-0.08,0.13
2025-12-17 14:28:16.914,-0.19,0.25,9.08,-0.01,-0.08,0.12
2025-12-17 14:28:16.937,-0.26,0.16,9.09,-0.01,-0.08,0.13
2025-12-17 14:28:16.959,-0.28,0.18,9.07,-0.01,-0.08,0.13
2025-12-17 14:28:16.982,-0.23,0.06,9.02,-0.01,-0.08,0.13
2025-12-17 14:28:17.006,-0.18,0.1,9.06,-0.01,-0.08,0.12
2025-12-17 14:28:17.029,-0.25,0.21,8.99,-0.01,-0.08,0.13
2025-12-17 14:28:17.052,-0.22,0.14,9.01,-0.0,-0.08,0.13
2025-12-17 14:28:17.075,-0.19,0.14,8.97,-0.01,-0.08,0.13
2025-12-17 14:28:17.098,-0.25,0.2,9.05,-0.01,-0.08,0.13
2025-12-17 14:28:17.121,-0.2,0.14,8.98,-0.01,-0.08,0.13
2025-12-17 14:28:17.144,-0.18,0.15,9.01,-0.01,-0.08,0.13
2025-12-17 14:28:17.167,-0.18,0.19,9.02,-0.01,-0.08,0.12
2025-12-17 14:28:17.190,-0.14,0.2,9.05,-0.01,-0.08,0.12
2025-12-17 14:28:17.212,-0.27,0.18,8.94,-0.01,-0.08,0.13
2025-12-17 14:28:17.235,-0.3,0.15,9.14,-0.01,-0.08,0.13
2025-12-17 14:28:17.258,-0.16,0.09,9.05,-0.01,-0.08,0.13
2025-12-17 14:28:17.281,-0.17,0.16,9.03,-0.01,-0.07,0.13
2025-12-17 14:28:17.304,-0.24,0.2,9.03,-0.01,-0.08,0.13
2025-12-17 14:28:17.327,-0.2,0.16,9.05,-0.01,-0.08,0.12
2025-12-17 14:28:17.350,-0.17,0.24,9.1,-0.0,-0.08,0.13
2025-12-17 14:28:17.373,-0.21,0.24,9.01,-0.01,-0.08,0.13
2025-12-17 14:28:17.396,-0.2,0.21,9.01,-0.01,-0.08,0.13
2025-12-17 14:28:17.420,-0.24,0.17,9.07,-0.01,-0.08,0.13
2025-12-17 14:28:17.443,-0.18,0.22,9.02,-0.01,-0.08,0.13
2025-12-17 14:28:17.466,-0.19,0.19,8.96,-0.01,-0.08,0.13
2025-12-17 14:28:17.489,-0.23,0.16,9.04,-0.01,-0.08,0.13
2025-12-17 14:28:17.512,-0.19,0.13,9.02,-0.01,-0.08,0.13
2025-12-17 14:28:17.535,-0.3,0.14,9.09,-0.01,-0.08,0.13
2025-12-17 14:28:17.558,-0.2,0.06,8.99,-0.01,-0.08,0.13
2025-12-17 14:28:17.581,-0.24,0.17,9.05,-0.0,-0.08,0.13
2025-12-17 14:28:17.603,-0.21,0.11,9.15,-0.01,-0.08,0.13
2025-12-17 14:28:17.626,-0.19,0.17,8.98,-0.0,-0.08,0.13
2025-12-17 14:28:17.649,-0.24,0.2,9.09,-0.0,-0.08,0.13
2025-12-17 14:28:17.672,-0.17,0.2,9.04,-0.01,-0.08,0.12
2025-12-17 14:28:17.695,-0.21,0.22,9.0,-0.01,-0.08,0.13
2025-12-17 14:28:17.718,-0.22,0.22,9.04,-0.01,-0.08,0.13
2025-12-17 14:28:17.742,-0.25,0.17,9.0,-0.01,-0.08,0.13
2025-12-17 14:28:17.765,-0.2,0.22,8.98,-0.01,-0.08,0.12
2025-12-17 14:28:17.788,-0.33,0.18,9.07,-0.01,-0.08,0.13
2025-12-17 14:28:17.811,-0.25,0.18,9.01,-0.01,-0.08,0.12
2025-12-17 14:28:17.833,-0.23,0.13,9.0,-0.01,-0.08,0.13
2025-12-17 14:28:17.856,-0.26,0.14,9.14,-0.01,-0.08,0.13
2025-12-17 14:28:17.879,-0.16,0.16,9.08,-0.0,-0.08,0.13
2025-12-17 14:28:17.902,-0.24,0.15,9.05,-0.01,-0.08,0.13
2025-12-17 14:28:17.926,-0.17,0.23,8.95,-0.0,-0.08,0.13
2025-12-17 14:28:17.949,-0.18,0.25,8.99,-0.0,-0.08,0.13
2025-12-17 14:28:17.972,-0.19,0.13,9.05,-0.0,-0.08,0.12
2025-12-17 14:28:17.995,-0.19,0.21,8.97,-0.01,-0.08,0.12
2025-12-17 14:28:18.018,-0.22,0.25,9.03,-0.01,-0.08,0.13
2025-12-17 14:28:18.041,-0.17,0.19,9.0,-0.01,-0.08,0.13
2025-12-17 14:28:18.064,-0.23,0.14,9.09,-0.01,-0.08,0.13
2025-12-17 14:28:18.087,-0.28,0.24,9.01,-0.01,-0.08,0.13
2025-12-17 14:28:18.109,-0.18,0.13,9.07,-0.01,-0.08,0.13
2025-12-17 14:28:18.132,-0.19,0.17,9.05,-0.01,-0.08,0.13
2025-12-17 14:28:18.155,-0.19,0.15,9.06,-0.01,-0.08,0.13
2025-12-17 14:28:18.178,-0.25,0.13,9.05,-0.01,-0.08,0.13
2025-12-17 14:28:18.201,-0.25,0.27,8.99,-0.01,-0.08,0.13
2025-12-17 14:28:18.224,-0.2,0.2,9.02,-0.01,-0.08,0.12
2025-12-17 14:28:18.247,-0.28,0.19,9.01,-0.01,-0.08,0.13
2025-12-17 14:28:18.270,-0.27,0.16,9.03,-0.01,-0.08,0.13
2025-12-17 14:28:18.294,-0.28,0.22,9.05,-0.01,-0.08,0.13
2025-12-17 14:28:18.317,-0.23,0.22,9.08,-0.01,-0.08,0.13
2025-12-17 14:28:18.340,-0.19,0.13,8.99,-0.0,-0.08,0.13
2025-12-17 14:28:18.363,-0.25,0.16,9.13,-0.01,-0.08,0.13
2025-12-17 14:28:18.386,-0.25,0.11,9.11,-0.01,-0.08,0.13
2025-12-17 14:28:18.408,-0.23,0.17,9.09,-0.01,-0.08,0.13
2025-12-17 14:28:18.431,-0.26,0.18,9.01,-0.0,-0.08,0.13
2025-12-17 14:28:18.454,-0.24,0.13,9.0,-0.01,-0.08,0.13
2025-12-17 14:28:18.477,-0.25,0.22,8.96,-0.01,-0.08,0.13
2025-12-17 14:28:18.500,-0.28,0.22,9.02,-0.01,-0.08,0.12
2025-12-17 14:28:18.523,-0.24,0.24,8.94,-0.01,-0.08,0.13
2025-12-17 14:28:18.546,-0.16,0.21,8.93,-0.01,-0.08,0.13
2025-12-17 14:28:18.569,-0.21,0.22,9.0,-0.01,-0.08,0.12
2025-12-17 14:28:18.593,-0.17,0.21,9.1,-0.01,-0.08,0.12
2025-12-17 14:28:18.616,-0.27,0.22,9.01,-0.01,-0.08,0.13
2025-12-17 14:28:18.639,-0.25,0.21,9.03,-0.01,-0.08,0.13
2025-12-17 14:28:18.662,-0.25,0.13,9.06,-0.01,-0.08,0.13
2025-12-17 14:28:18.685,-0.3,0.19,9.05,-0.0,-0.08,0.13
2025-12-17 14:28:18.708,-0.29,0.14,9.11,-0.01,-0.08,0.12
2025-12-17 14:28:18.731,-0.2,0.12,9.05,-0.0,-0.08,0.13
2025-12-17 14:28:18.754,-0.24,0.22,9.0,-0.0,-0.08,0.13
2025-12-17 14:28:18.776,-0.2,0.16,8.98,-0.01,-0.08,0.13
2025-12-17 14:28:18.799,-0.18,0.18,9.05,-0.01,-0.08,0.13
2025-12-17 14:28:18.822,-0.18,0.24,9.09,-0.01,-0.08,0.13
2025-12-17 14:28:18.846,-0.27,0.17,9.02,-0.01,-0.08,0.13
2025-12-17 14:28:18.869,-0.22,0.11,9.03,-0.01,-0.08,0.12
2025-12-17 14:28:18.892,-0.21,0.14,9.02,-0.01,-0.08,0.13
2025-12-17 14:28:18.915,-0.24,0.22,9.0,-0.01,-0.08,0.13
2025-12-17 14:28:18.937,-0.21,0.13,9.01,-0.01,-0.08,0.13
2025-12-17 14:28:18.960,-0.3,0.18,9.11,-0.01,-0.08,0.13
2025-12-17 14:28:18.983,-0.18,0.13,9.08,-0.01,-0.08,0.13
2025-12-17 14:28:19.006,-0.23,0.19,9.04,-0.0,-0.07,0.13
2025-12-17 14:28:19.029,-0.17,0.23,9.05,-0.01,-0.08,0.13
2025-12-17 14:28:19.052,-0.26,0.14,9.04,-0.01,-0.08,0.13
2025-12-17 14:28:19.075,-0.23,0.16,9.01,-0.01,-0.08,0.12
2025-12-17 14:28:19.098,-0.24,0.2,9.14,-0.01,-0.08,0.13
2025-12-17 14:28:19.122,-0.24,0.25,9.05,-0.01,-0.08,0.13
2025-12-17 14:28:19.144,-0.19,0.14,9.05,-0.01,-0.08,0.13
2025-12-17 14:28:19.167,-0.19,0.16,9.01,-0.01,-0.08,0.13
2025-12-17 14:28:19.191,-0.18,0.18,9.07,-0.01,-0.08,0.13
2025-12-17 14:28:19.214,-0.25,0.16,9.02,-0.01,-0.08,0.12
2025-12-17 14:28:19.237,-0.19,0.16,8.99,-0.01,-0.08,0.13
2025-12-17 14:28:19.260,-0.28,0.15,9.06,-0.01,-0.08,0.12
2025-12-17 14:28:19.283,-0.22,0.18,9.02,-0.01,-0.08,0.12
2025-12-17 14:28:19.306,-0.18,0.19,8.96,-0.01,-0.08,0.12
2025-12-17 14:28:19.329,-0.17,0.16,9.04,-0.01,-0.08,0.13
2025-12-17 14:28:19.351,-0.23,0.17,9.08,-0.01,-0.08,0.13
2025-12-17 14:28:19.374,-0.2,0.18,9.04,-0.01,-0.08,0.13
2025-12-17 14:28:19.397,-0.29,0.16,9.01,-0.01,-0.08,0.13
2025-12-17 14:28:19.420,-0.22,0.22,9.0,-0.01,-0.08,0.13
2025-12-17 14:28:19.443,-0.14,0.16,9.04,-0.01,-0.08,0.13
2025-12-17 14:28:19.466,-0.2,0.17,9.05,-0.01,-0.08,0.13
2025-12-17 14:28:19.489,-0.19,0.16,9.01,-0.01,-0.08,0.13
2025-12-17 14:28:19.513,-0.3,0.18,9.0,-0.01,-0.08,0.13
2025-12-17 14:28:19.536,-0.22,0.18,9.07,-0.0,-0.08,0.13
2025-12-17 14:28:19.559,-0.25,0.08,9.03,-0.0,-0.08,0.13
2025-12-17 14:28:19.582,-0.23,0.17,8.97,-0.01,-0.08,0.13
2025-12-17 14:28:19.605,-0.26,0.17,9.08,-0.0,-0.08,0.13
2025-12-17 14:28:19.628,-0.21,0.24,9.03,-0.01,-0.08,0.12
2025-12-17 14:28:19.651,-0.25,0.2,9.06,-0.01,-0.08,0.12
2025-12-17 14:28:19.673,-0.26,0.26,9.0,-0.01,-0.08,0.13
2025-12-17 14:28:19.696,-0.21,0.16,9.02,-0.01,-0.08,0.13
2025-12-17 14:28:19.719,-0.2,0.16,8.95,-0.01,-0.08,0.12
2025-12-17 14:28:19.742,-0.23,0.21,9.1,-0.01,-0.08,0.13
2025-12-17 14:28:19.765,-0.19,0.11,9.08,-0.01,-0.08,0.13
2025-12-17 14:28:19.788,-0.24,0.18,9.0,-0.01,-0.08,0.12
2025-12-17 14:28:19.811,-0.24,0.16,9.09,-0.01,-0.08,0.13
2025-12-17 14:28:19.834,-0.22,0.17,9.1,-0.01,-0.08,0.13
2025-12-17 14:28:19.858,-0.22,0.15,9.09,-0.01,-0.08,0.13
2025-12-17 14:28:19.881,-0.13,0.09,9.02,-0.01,-0.08,0.13
2025-12-17 14:28:19.904,-0.17,0.26,9.1,-0.01,-0.09,0.13
2025-12-17 14:28:19.927,-0.2,0.2,8.95,-0.01,-0.08,0.13
2025-12-17 14:28:19.950,-0.23,0.18,9.01,-0.01,-0.08,0.13
2025-12-17 14:28:19.973,-0.22,0.24,9.1,-0.01,-0.08,0.13
2025-12-17 14:28:19.996,-0.23,0.16,9.07,-0.01,-0.08,0.13
2025-12-17 14:28:20.019,-0.24,0.17,9.03,-0.01,-0.08,0.12
2025-12-17 14:28:20.041,-0.19,0.21,9.09,-0.01,-0.08,0.13
2025-12-17 14:28:20.064,-0.19,0.12,9.13,-0.01,-0.08,0.13
2025-12-17 14:28:20.087,-0.24,0.17,8.95,-0.01,-0.08,0.13
2025-12-17 14:28:20.110,-0.19,0.15,9.05,-0.01,-0.08,0.13
2025-12-17 14:28:20.133,-0.18,0.19,9.11,-0.01,-0.08,0.13
2025-12-17 14:28:20.156,-0.24,0.2,9.01,-0.01,-0.08,0.12
2025-12-17 14:28:20.179,-0.21,0.15,9.11,-0.0,-0.08,0.13
2025-12-17 14:28:20.202,-0.24,0.22,8.95,-0.01,-0.08,0.13
2025-12-17 14:28:20.226,-0.2,0.21,9.14,-0.01,-0.08,0.13
2025-12-17 14:28:20.249,-0.15,0.18,9.04,-0.01,-0.08,0.12
2025-12-17 14:28:20.272,-0.23,0.21,9.03,-0.01,-0.08,0.13
2025-12-17 14:28:20.295,-0.2,0.18,9.01,-0.01,-0.08,0.13
2025-12-17 14:28:20.317,-0.23,0.09,9.06,-0.01,-0.08,0.13
2025-12-17 14:28:20.340,-0.21,0.13,9.0,-0.01,-0.08,0.12
2025-12-17 14:28:20.363,-0.18,0.22,8.95,-0.01,-0.08,0.13
2025-12-17 14:28:20.386,-0.2,0.18,9.0,-0.01,-0.08,0.13
2025-12-17 14:28:20.409,-0.18,0.16,9.02,-0.01,-0.08,0.13
2025-12-17 14:28:20.432,-0.2,0.21,9.02,-0.01,-0.08,0.13
2025-12-17 14:28:20.455,-0.22,0.14,9.07,-0.01,-0.08,0.13
2025-12-17 14:28:20.478,-0.3,0.13,9.0,-0.01,-0.08,0.13
2025-12-17 14:28:20.501,-0.23,0.19,8.98,-0.01,-0.08,0.13
2025-12-17 14:28:20.524,-0.24,0.23,9.01,-0.01,-0.08,0.13
2025-12-17 14:28:20.547,-0.16,0.17,9.05,-0.01,-0.08,0.12
2025-12-17 14:28:20.570,-0.24,0.22,9.04,-0.01,-0.08,0.13
2025-12-17 14:28:20.593,-0.23,0.16,9.05,-0.01,-0.08,0.13
2025-12-17 14:28:20.616,-0.17,0.17,8.98,-0.01,-0.08,0.13
2025-12-17 14:28:20.640,-0.22,0.18,9.04,-0.0,-0.08,0.13
2025-12-17 14:28:20.663,-0.31,0.17,9.05,-0.01,-0.08,0.12
2025-12-17 14:28:20.686,-0.26,0.18,9.1,-0.0,-0.08,0.13
2025-12-17 14:28:20.709,-0.16,0.16,9.1,-0.01,-0.08,0.13
2025-12-17 14:28:20.731,-0.19,0.18,9.01,-0.01,-0.08,0.13
2025-12-17 14:28:20.754,-0.26,0.15,9.11,-0.01,-0.08,0.13
2025-12-17 14:28:20.777,-0.23,0.22,9.01,-0.01,-0.08,0.13
2025-12-17 14:28:20.800,-0.22,0.17,9.11,-0.01,-0.08,0.13
2025-12-17 14:28:20.823,-0.29,0.2,9.04,-0.01,-0.08,0.12
2025-12-17 14:28:20.846,-0.29,0.27,9.09,-0.01,-0.08,0.12
2025-12-17 14:28:20.870,-0.24,0.22,9.07,-0.01,-0.08,0.13
2025-12-17 14:28:20.892,-0.16,0.21,8.98,-0.01,-0.08,0.13
2025-12-17 14:28:20.916,-0.23,0.25,9.08,-0.01,-0.08,0.13
2025-12-17 14:28:20.939,-0.23,0.17,8.96,-0.01,-0.08,0.13
2025-12-17 14:28:20.962,-0.17,0.1,9.05,-0.01,-0.08,0.13
2025-12-17 14:28:20.985,-0.13,0.19,9.07,-0.01,-0.08,0.13
2025-12-17 14:28:21.008,-0.2,0.2,8.99,-0.01,-0.08,0.13
2025-12-17 14:28:21.031,-0.25,0.18,9.05,-0.01,-0.08,0.13
2025-12-17 14:28:21.054,-0.26,0.14,8.98,-0.01,-0.08,0.13
2025-12-17 14:28:21.077,-0.27,0.19,8.99,-0.01,-0.08,0.13
2025-12-17 14:28:21.099,-0.25,0.18,9.06,-0.01,-0.08,0.12
2025-12-17 14:28:21.122,-0.18,0.18,9.01,-0.01,-0.08,0.13
2025-12-17 14:28:21.145,-0.26,0.21,9.08,-0.0,-0.08,0.13
2025-12-17 14:28:21.168,-0.2,0.17,9.06,-0.01,-0.08,0.12
2025-12-17 14:28:21.191,-0.23,0.17,9.08,-0.0,-0.08,0.12
2025-12-17 14:28:21.215,-0.25,0.14,9.05,-0.01,-0.08,0.13
2025-12-17 14:28:21.237,-0.14,0.23,9.06,-0.01,-0.08,0.13
2025-12-17 14:28:21.260,-0.15,0.17,9.09,-0.01,-0.08,0.13
2025-12-17 14:28:21.284,-0.22,0.11,9.04,-0.01,-0.08,0.13
2025-12-17 14:28:21.307,-0.23,0.14,9.05,-0.01,-0.08,0.13
2025-12-17 14:28:21.330,-0.22,0.17,9.03,-0.0,-0.08,0.13
2025-12-17 14:28:21.353,-0.26,0.15,9.06,-0.0,-0.08,0.13
2025-12-17 14:28:21.376,-0.22,0.18,9.02,-0.01,-0.08,0.13
2025-12-17 14:28:21.399,-0.28,0.23,9.05,-0.01,-0.08,0.13
2025-12-17 14:28:21.421,-0.22,0.17,8.94,-0.01,-0.08,0.13
2025-12-17 14:28:21.444,-0.23,0.2,9.03,-0.01,-0.08,0.13
2025-12-17 14:28:21.467,-0.19,0.15,9.13,-0.0,-0.08,0.13
2025-12-17 14:28:21.491,-0.23,0.12,9.03,-0.01,-0.08,0.13
2025-12-17 14:28:21.513,-0.26,0.18,9.1,-0.01,-0.08,0.13
2025-12-17 14:28:21.537,-0.22,0.23,9.02,-0.01,-0.08,0.12
2025-12-17 14:28:21.560,-0.23,0.17,9.02,-0.01,-0.08,0.13
2025-12-17 14:28:21.583,-0.22,0.16,9.11,-0.01,-0.08,0.13
2025-12-17 14:28:21.606,-0.25,0.2,9.02,-0.0,-0.08,0.13
2025-12-17 14:28:21.629,-0.25,0.23,9.07,-0.01,-0.08,0.13
2025-12-17 14:28:21.652,-0.21,0.15,9.04,-0.01,-0.08,0.13
2025-12-17 14:28:21.675,-0.24,0.23,8.99,-0.01,-0.08,0.13
2025-12-17 14:28:21.698,-0.26,0.18,9.02,-0.01,-0.08,0.13
2025-12-17 14:28:21.721,-0.21,0.16,9.07,-0.01,-0.08,0.13
2025-12-17 14:28:21.743,-0.2,0.19,9.05,-0.01,-0.08,0.13
2025-12-17 14:28:21.766,-0.2,0.15,9.03,-0.01,-0.08,0.13
2025-12-17 14:28:21.789,-0.26,0.21,9.03,-0.01,-0.08,0.13
2025-12-17 14:28:21.812,-0.19,0.15,9.05,-0.01,-0.08,0.13
2025-12-17 14:28:21.836,-0.22,0.17,9.05,-0.01,-0.08,0.13
2025-12-17 14:28:21.858,-0.28,0.19,9.04,-0.01,-0.08,0.13
2025-12-17 14:28:21.881,-0.24,0.22,9.0,-0.0,-0.08,0.13
2025-12-17 14:28:21.905,-0.21,0.1,8.96,-0.0,-0.08,0.13
2025-12-17 14:28:21.928,-0.23,0.21,8.99,-0.01,-0.08,0.12
2025-12-17 14:28:21.951,-0.24,0.17,9.03,-0.01,-0.08,0.13
2025-12-17 14:28:21.974,-0.24,0.23,9.05,-0.01,-0.08,0.13
2025-12-17 14:28:21.997,-0.17,0.25,9.1,-0.01,-0.08,0.13
2025-12-17 14:28:22.020,-0.18,0.2,9.0,-0.01,-0.08,0.13
2025-12-17 14:28:22.043,-0.22,0.16,9.05,-0.01,-0.08,0.13
2025-12-17 14:28:22.066,-0.19,0.2,9.07,-0.01,-0.08,0.13
2025-12-17 14:28:22.089,-0.27,0.2,9.03,-0.01,-0.08,0.13
2025-12-17 14:28:22.111,-0.16,0.18,9.01,-0.01,-0.08,0.12
2025-12-17 14:28:22.134,-0.2,0.19,8.98,-0.01,-0.08,0.13
2025-12-17 14:28:22.157,-0.22,0.18,9.08,-0.01,-0.08,0.13
2025-12-17 14:28:22.180,-0.15,0.13,9.0,-0.01,-0.08,0.13
2025-12-17 14:28:22.203,-0.19,0.15,8.97,-0.01,-0.08,0.13
2025-12-17 14:28:22.226,-0.28,0.18,9.06,-0.01,-0.08,0.13
2025-12-17 14:28:22.249,-0.19,0.15,8.98,-0.01,-0.08,0.13
2025-12-17 14:28:22.272,-0.21,0.18,8.98,-0.0,-0.08,0.13
2025-12-17 14:28:22.295,-0.16,0.26,9.02,-0.01,-0.08,0.13
2025-12-17 14:28:22.319,-0.27,0.2,8.96,-0.01,-0.08,0.13
2025-12-17 14:28:22.342,-0.25,0.17,9.07,-0.01,-0.08,0.13
2025-12-17 14:28:22.365,-0.25,0.1,9.09,-0.01,-0.08,0.13
2025-12-17 14:28:22.388,-0.23,0.15,9.04,-0.01,-0.08,0.12
2025-12-17 14:28:22.411,-0.23,0.21,9.02,-0.01,-0.08,0.13
2025-12-17 14:28:22.434,-0.2,0.17,9.0,-0.01,-0.08,0.13
2025-12-17 14:28:22.457,-0.32,0.14,9.02,-0.01,-0.08,0.13
2025-12-17 14:28:22.479,-0.23,0.21,9.05,-0.01,-0.08,0.13
2025-12-17 14:28:22.502,-0.22,0.24,9.05,-0.01,-0.08,0.13
2025-12-17 14:28:22.525,-0.19,0.21,9.04,-0.01,-0.08,0.13
2025-12-17 14:28:22.548,-0.24,0.15,9.1,-0.01,-0.08,0.13
2025-12-17 14:28:22.571,-0.16,0.24,9.05,-0.01,-0.08,0.12
2025-12-17 14:28:22.594,-0.23,0.2,9.05,-0.01,-0.08,0.13
2025-12-17 14:28:22.617,-0.26,0.19,9.04,-0.01,-0.08,0.13
2025-12-17 14:28:22.641,-0.19,0.16,9.08,-0.01,-0.08,0.13
2025-12-17 14:28:22.664,-0.23,0.19,8.94,-0.01,-0.08,0.13
2025-12-17 14:28:22.687,-0.26,0.2,9.07,-0.01,-0.08,0.12
2025-12-17 14:28:22.710,-0.22,0.14,9.02,-0.01,-0.08,0.13
2025-12-17 14:28:22.733,-0.25,0.17,9.04,-0.01,-0.08,0.13
2025-12-17 14:28:22.756,-0.22,0.23,9.0,-0.01,-0.08,0.13
2025-12-17 14:28:22.778,-0.2,0.21,9.02,-0.01,-0.08,0.13
2025-12-17 14:28:22.801,-0.21,0.14,9.02,-0.01,-0.08,0.13
2025-12-17 14:28:22.824,-0.17,0.18,9.03,-0.01,-0.08,0.12
2025-12-17 14:28:22.848,-0.19,0.16,9.09,-0.01,-0.08,0.13
2025-12-17 14:28:22.871,-0.25,0.2,9.05,-0.01,-0.08,0.13
2025-12-17 14:28:22.894,-0.28,0.24,9.09,-0.01,-0.08,0.13
2025-12-17 14:28:22.917,-0.2,0.21,9.03,-0.01,-0.08,0.13
2025-12-17 14:28:22.939,-0.22,0.16,9.05,-0.01,-0.08,0.13
2025-12-17 14:28:22.962,-0.21,0.11,9.02,-0.01,-0.08,0.12
2025-12-17 14:28:22.985,-0.19,0.11,9.01,-0.0,-0.08,0.13
2025-12-17 14:28:23.008,-0.23,0.18,9.12,-0.01,-0.08,0.13
2025-12-17 14:28:23.031,-0.2,0.2,9.0,-0.01,-0.08,0.12
2025-12-17 14:28:23.054,-0.22,0.26,9.08,-0.01,-0.08,0.13
2025-12-17 14:28:23.078,-0.28,0.15,9.05,-0.01,-0.08,0.13
2025-12-17 14:28:23.101,-0.11,0.13,9.01,-0.01,-0.08,0.13
2025-12-17 14:28:23.124,-0.25,0.19,9.07,-0.01,-0.08,0.13
2025-12-17 14:28:23.147,-0.2,0.2,8.95,-0.01,-0.08,0.13
2025-12-17 14:28:23.170,-0.21,0.17,9.04,-0.01,-0.08,0.13
2025-12-17 14:28:23.193,-0.17,0.2,9.05,-0.01,-0.08,0.13
2025-12-17 14:28:23.216,-0.19,0.19,9.07,-0.01,-0.08,0.13
2025-12-17 14:28:23.239,-0.22,0.19,9.08,-0.01,-0.08,0.12
2025-12-17 14:28:23.262,-0.23,0.22,9.08,-0.01,-0.08,0.13
2025-12-17 14:28:23.284,-0.22,0.13,8.95,-0.01,-0.08,0.13
2025-12-17 14:28:23.307,-0.2,0.2,8.98,-0.0,-0.08,0.13
2025-12-17 14:28:23.330,-0.26,0.15,9.05,-0.01,-0.08,0.13
2025-12-17 14:28:23.353,-0.24,0.21,8.98,-0.01,-0.08,0.13
2025-12-17 14:28:23.376,-0.19,0.2,9.04,-0.01,-0.08,0.13
2025-12-17 14:28:23.399,-0.18,0.15,9.1,-0.01,-0.08,0.13
2025-12-17 14:28:23.423,-0.24,0.2,9.04,-0.0,-0.08,0.13
2025-12-17 14:28:23.446,-0.22,0.18,9.01,-0.01,-0.08,0.12
2025-12-17 14:28:23.469,-0.23,0.21,9.02,-0.01,-0.08,0.13
2025-12-17 14:28:23.492,-0.19,0.13,9.12,-0.01,-0.08,0.13
2025-12-17 14:28:23.515,-0.16,0.25,9.02,-0.01,-0.08,0.12
2025-12-17 14:28:23.538,-0.24,0.17,9.09,-0.01,-0.08,0.13
2025-12-17 14:28:23.561,-0.19,0.13,9.08,-0.01,-0.08,0.12
2025-12-17 14:28:23.584,-0.19,0.22,9.0,-0.0,-0.08,0.13
2025-12-17 14:28:23.607,-0.18,0.2,9.04,-0.01,-0.08,0.12
2025-12-17 14:28:23.630,-0.25,0.16,9.08,-0.01,-0.08,0.13
2025-12-17 14:28:23.653,-0.25,0.22,8.97,-0.01,-0.08,0.12
2025-12-17 14:28:23.675,-0.22,0.14,8.96,-0.01,-0.08,0.13
2025-12-17 14:28:23.699,-0.18,0.18,9.0,-0.01,-0.08,0.13
2025-12-17 14:28:23.722,-0.25,0.19,9.06,-0.01,-0.08,0.13
2025-12-17 14:28:23.745,-0.2,0.18,8.98,-0.01,-0.08,0.13
2025-12-17 14:28:23.767,-0.21,0.21,9.0,-0.01,-0.08,0.13
2025-12-17 14:28:23.790,-0.2,0.2,9.05,-0.01,-0.08,0.13
2025-12-17 14:28:23.814,-0.16,0.2,9.05,-0.01,-0.08,0.13
2025-12-17 14:28:23.837,-0.24,0.18,9.09,-0.01,-0.08,0.13
2025-12-17 14:28:23.860,-0.22,0.19,9.09,-0.01,-0.08,0.13
2025-12-17 14:28:23.883,-0.26,0.22,9.03,-0.01,-0.08,0.13
2025-12-17 14:28:23.905,-0.23,0.14,9.05,-0.01,-0.08,0.13
2025-12-17 14:28:23.928,-0.19,0.22,9.04,-0.0,-0.08,0.13
2025-12-17 14:28:23.951,-0.31,0.19,9.05,-0.01,-0.08,0.13
2025-12-17 14:28:23.974,-0.2,0.18,9.0,-0.01,-0.08,0.13
2025-12-17 14:28:23.998,-0.28,0.17,9.13,-0.01,-0.08,0.12
2025-12-17 14:28:24.021,-0.17,0.19,9.01,-0.01,-0.08,0.13
2025-12-17 14:28:24.044,-0.18,0.21,9.03,-0.01,-0.08,0.13
2025-12-17 14:28:24.067,-0.19,0.25,8.99,-0.01,-0.08,0.12
2025-12-17 14:28:24.090,-0.25,0.21,9.1,-0.01,-0.08,0.13
2025-12-17 14:28:24.112,-0.28,0.14,8.96,-0.01,-0.08,0.13
2025-12-17 14:28:24.136,-0.19,0.24,9.01,-0.01,-0.08,0.13
2025-12-17 14:28:24.159,-0.23,0.17,9.11,-0.01,-0.08,0.13
2025-12-17 14:28:24.182,-0.17,0.2,9.07,-0.01,-0.08,0.12
2025-12-17 14:28:24.205,-0.31,0.16,9.07,-0.01,-0.08,0.13
2025-12-17 14:28:24.228,-0.18,0.08,9.05,-0.01,-0.08,0.13
2025-12-17 14:28:24.251,-0.27,0.12,9.02,-0.01,-0.08,0.13
2025-12-17 14:28:24.274,-0.27,0.17,9.06,-0.01,-0.08,0.13
2025-12-17 14:28:24.297,-0.28,0.18,9.04,-0.01,-0.08,0.13
2025-12-17 14:28:24.320,-0.17,0.13,8.93,-0.01,-0.08,0.13
2025-12-17 14:28:24.343,-0.2,0.26,8.96,-0.0,-0.08,0.13
2025-12-17 14:28:24.365,-0.24,0.27,9.0,-0.01,-0.08,0.13
2025-12-17 14:28:24.388,-0.27,0.15,9.08,-0.01,-0.08,0.13
2025-12-17 14:28:24.411,-0.13,0.17,9.03,-0.01,-0.08,0.13
2025-12-17 14:28:24.434,-0.19,0.21,9.02,-0.01,-0.08,0.13
2025-12-17 14:28:24.457,-0.25,0.17,9.02,-0.01,-0.08,0.12
2025-12-17 14:28:24.480,-0.3,0.17,9.05,-0.01,-0.08,0.13
2025-12-17 14:28:24.503,-0.26,0.27,9.0,-0.01,-0.08,0.13
2025-12-17 14:28:24.527,-0.26,0.13,9.15,-0.01,-0.08,0.13
2025-12-17 14:28:24.550,-0.27,0.17,9.05,-0.0,-0.08,0.12
2025-12-17 14:28:24.573,-0.3,0.23,8.97,-0.0,-0.08,0.13
2025-12-17 14:28:24.596,-0.17,0.18,9.08,-0.01,-0.08,0.13
2025-12-17 14:28:24.619,-0.19,0.16,9.0,-0.01,-0.08,0.13
2025-12-17 14:28:24.642,-0.22,0.26,9.03,-0.01,-0.08,0.13
2025-12-17 14:28:24.665,-0.23,0.19,9.08,-0.01,-0.08,0.13
2025-12-17 14:28:24.688,-0.21,0.11,9.01,-0.01,-0.08,0.13
2025-12-17 14:28:24.711,-0.2,0.22,9.06,-0.01,-0.08,0.12
2025-12-17 14:28:24.734,-0.16,0.21,9.01,-0.01,-0.08,0.12
2025-12-17 14:28:24.756,-0.26,0.11,9.06,-0.01,-0.08,0.13
2025-12-17 14:28:24.779,-0.26,0.23,9.06,-0.01,-0.08,0.13
2025-12-17 14:28:24.802,-0.16,0.09,9.03,-0.01,-0.08,0.13
2025-12-17 14:28:24.825,-0.24,0.17,9.03,-0.01,-0.08,0.13
2025-12-17 14:28:24.848,-0.31,0.16,8.95,-0.01,-0.08,0.13
2025-12-17 14:28:24.872,-0.24,0.18,9.06,-0.01,-0.08,0.13
2025-12-17 14:28:24.895,-0.23,0.22,9.07,-0.01,-0.08,0.13
2025-12-17 14:28:24.918,-0.19,0.26,9.02,-0.01,-0.08,0.13
2025-12-17 14:28:24.941,-0.2,0.15,9.04,-0.01,-0.08,0.13
2025-12-17 14:28:24.964,-0.21,0.18,8.95,-0.01,-0.08,0.13
2025-12-17 14:28:24.987,-0.16,0.17,9.1,-0.01,-0.08,0.13
2025-12-17 14:28:25.010,-0.17,0.21,9.06,-0.01,-0.08,0.12
2025-12-17 14:28:25.033,-0.17,0.09,9.06,-0.01,-0.08,0.13
2025-12-17 14:28:25.056,-0.22,0.2,9.04,-0.01,-0.08,0.13
2025-12-17 14:28:25.079,-0.2,0.14,9.1,-0.01,-0.08,0.13
2025-12-17 14:28:25.102,-0.14,0.05,9.07,-0.01,-0.08,0.13
2025-12-17 14:28:25.124,-0.25,0.18,9.04,-0.0,-0.08,0.13
2025-12-17 14:28:25.147,-0.28,0.2,9.07,-0.0,-0.08,0.13
2025-12-17 14:28:25.171,-0.23,0.23,9.1,-0.01,-0.08,0.13
2025-12-17 14:28:25.194,-0.19,0.24,9.04,-0.01,-0.08,0.13
2025-12-17 14:28:25.217,-0.24,0.19,8.94,-0.01,-0.08,0.12
2025-12-17 14:28:25.240,-0.21,0.16,9.08,-0.01,-0.08,0.13
2025-12-17 14:28:25.263,-0.19,0.16,9.02,-0.01,-0.08,0.13
2025-12-17 14:28:25.286,-0.12,0.21,9.05,-0.01,-0.08,0.13
2025-12-17 14:28:25.309,-0.14,0.16,9.08,-0.01,-0.08,0.13
2025-12-17 14:28:25.332,-0.25,0.15,9.0,-0.01,-0.08,0.12
2025-12-17 14:28:25.355,-0.25,0.15,9.02,-0.0,-0.08,0.13
2025-12-17 14:28:25.378,-0.15,0.15,9.03,-0.01,-0.08,0.13
2025-12-17 14:28:25.401,-0.19,0.16,9.05,-0.0,-0.08,0.13
2025-12-17 14:28:25.424,-0.24,0.19,9.04,-0.0,-0.08,0.12
2025-12-17 14:28:25.447,-0.3,0.23,8.98,-0.01,-0.08,0.13
2025-12-17 14:28:25.470,-0.25,0.23,9.04,-0.01,-0.08,0.12
2025-12-17 14:28:25.493,-0.22,0.26,9.05,-0.01,-0.08,0.13
2025-12-17 14:28:25.515,-0.22,0.14,9.11,-0.01,-0.08,0.12
2025-12-17 14:28:25.538,-0.2,0.18,9.05,-0.01,-0.08,0.12
2025-12-17 14:28:25.561,-0.18,0.22,9.08,-0.01,-0.08,0.13
2025-12-17 14:28:25.584,-0.13,0.08,9.03,-0.01,-0.08,0.13
2025-12-17 14:28:25.607,-0.16,0.17,9.0,-0.01,-0.08,0.12
2025-12-17 14:28:25.630,-0.2,0.12,9.06,-0.0,-0.08,0.13
2025-12-17 14:28:25.654,-0.18,0.16,9.05,-0.0,-0.08,0.12
2025-12-17 14:28:25.677,-0.22,0.15,8.99,-0.0,-0.08,0.13
2025-12-17 14:28:25.700,-0.2,0.18,9.05,-0.01,-0.08,0.13
2025-12-17 14:28:25.723,-0.24,0.18,8.99,-0.01,-0.08,0.13
2025-12-17 14:28:25.746,-0.3,0.2,9.0,-0.01,-0.08,0.12
2025-12-17 14:28:25.769,-0.3,0.23,9.0,-0.01,-0.08,0.13
2025-12-17 14:28:25.792,-0.33,0.28,9.07,-0.01,-0.08,0.13
2025-12-17 14:28:25.815,-0.17,0.22,9.01,-0.01,-0.08,0.12
2025-12-17 14:28:25.838,-0.23,0.23,9.0,-0.01,-0.08,0.13
2025-12-17 14:28:25.861,-0.18,0.08,9.0,-0.01,-0.08,0.12
2025-12-17 14:28:25.884,-0.17,0.07,9.02,-0.01,-0.08,0.13
2025-12-17 14:28:25.906,-0.09,0.2,9.16,-0.01,-0.08,0.13
2025-12-17 14:28:25.929,-0.16,0.18,9.0,-0.01,-0.08,0.12
2025-12-17 14:28:25.952,-0.16,0.09,9.07,-0.01,-0.08,0.12
2025-12-17 14:28:25.975,-0.16,0.27,9.0,-0.0,-0.08,0.13
2025-12-17 14:28:25.999,-0.18,0.13,9.0,-0.0,-0.08,0.13
2025-12-17 14:28:26.022,-0.29,0.14,9.0,-0.0,-0.08,0.13
2025-12-17 14:28:26.045,-0.27,0.19,8.94,-0.0,-0.08,0.13
2025-12-17 14:28:26.068,-0.27,0.26,9.05,-0.01,-0.08,0.13
2025-12-17 14:28:26.091,-0.25,0.21,8.97,-0.01,-0.08,0.13
2025-12-17 14:28:26.114,-0.22,0.15,9.05,-0.01,-0.08,0.12
2025-12-17 14:28:26.137,-0.21,0.17,8.97,-0.01,-0.08,0.13
2025-12-17 14:28:26.160,-0.19,0.14,9.02,-0.01,-0.08,0.13
2025-12-17 14:28:26.182,-0.17,0.1,9.15,-0.01,-0.08,0.13
2025-12-17 14:28:26.205,-0.19,0.19,8.97,-0.0,-0.08,0.12
2025-12-17 14:28:26.229,-0.2,0.19,9.05,-0.01,-0.08,0.12
2025-12-17 14:28:26.252,-0.18,0.18,9.07,-0.01,-0.08,0.13
2025-12-17 14:28:26.275,-0.11,0.2,9.05,-0.01,-0.08,0.13
2025-12-17 14:28:26.298,-0.21,0.12,9.09,-0.0,-0.08,0.13
2025-12-17 14:28:26.321,-0.14,0.19,9.03,-0.01,-0.08,0.13
2025-12-17 14:28:26.343,-0.23,0.19,8.9,-0.0,-0.08,0.13
2025-12-17 14:28:26.367,-0.26,0.25,9.11,-0.01,-0.08,0.13
2025-12-17 14:28:26.390,-0.27,0.13,9.05,-0.01,-0.08,0.12
2025-12-17 14:28:26.413,-0.25,0.15,9.04,-0.01,-0.08,0.13
2025-12-17 14:28:26.436,-0.25,0.25,9.0,-0.01,-0.08,0.13
2025-12-17 14:28:26.459,-0.14,0.09,9.1,-0.01,-0.08,0.13
2025-12-17 14:28:26.482,-0.27,0.11,9.02,-0.01,-0.08,0.13
2025-12-17 14:28:26.505,-0.21,0.2,9.05,-0.01,-0.08,0.13
2025-12-17 14:28:26.528,-0.17,0.11,9.03,-0.0,-0.08,0.13
2025-12-17 14:28:26.551,-0.16,0.18,9.03,-0.0,-0.08,0.13
2025-12-17 14:28:26.574,-0.15,0.25,9.11,-0.01,-0.08,0.13
2025-12-17 14:28:26.596,-0.16,0.16,9.05,-0.0,-0.08,0.13
2025-12-17 14:28:26.619,-0.17,0.18,9.01,-0.01,-0.08,0.13
2025-12-17 14:28:26.642,-0.17,0.25,8.96,-0.01,-0.08,0.13
2025-12-17 14:28:26.665,-0.25,0.23,9.07,-0.01,-0.08,0.13
2025-12-17 14:28:26.688,-0.26,0.2,9.07,-0.01,-0.08,0.13
2025-12-17 14:28:26.711,-0.22,0.15,9.1,-0.01,-0.08,0.12
2025-12-17 14:28:26.735,-0.23,0.09,9.1,-0.01,-0.08,0.13
2025-12-17 14:28:26.758,-0.25,0.13,9.08,-0.01,-0.08,0.13
2025-12-17 14:28:26.781,-0.22,0.18,9.0,-0.01,-0.08,0.13
2025-12-17 14:28:26.804,-0.28,0.19,9.0,-0.0,-0.08,0.13
2025-12-17 14:28:26.826,-0.23,0.19,9.03,-0.0,-0.08,0.13
2025-12-17 14:28:26.850,-0.16,0.24,9.04,-0.0,-0.08,0.12
2025-12-17 14:28:26.872,-0.17,0.16,9.07,-0.01,-0.08,0.12
2025-12-17 14:28:26.895,-0.19,0.17,8.99,-0.01,-0.08,0.12
2025-12-17 14:28:26.918,-0.17,0.19,9.04,-0.01,-0.08,0.13
2025-12-17 14:28:26.942,-0.16,0.18,9.04,-0.01,-0.08,0.13
2025-12-17 14:28:26.964,-0.2,0.23,9.05,-0.01,-0.08,0.13
2025-12-17 14:28:26.988,-0.25,0.13,9.04,-0.01,-0.08,0.13
2025-12-17 14:28:27.010,-0.22,0.06,9.08,-0.01,-0.08,0.13
2025-12-17 14:28:27.033,-0.26,0.12,9.06,-0.01,-0.08,0.12
2025-12-17 14:28:27.056,-0.3,0.23,9.2,-0.01,-0.08,0.13
2025-12-17 14:28:27.079,-0.19,0.13,9.0,-0.0,-0.08,0.13
2025-12-17 14:28:27.103,-0.23,0.16,9.05,-0.0,-0.08,0.12
2025-12-17 14:28:27.126,-0.15,0.22,9.04,-0.01,-0.08,0.13
2025-12-17 14:28:27.149,-0.17,0.21,9.11,-0.01,-0.08,0.13
2025-12-17 14:28:27.172,-0.14,0.18,8.97,-0.01,-0.08,0.13
2025-12-17 14:28:27.195,-0.15,0.2,9.02,-0.01,-0.08,0.13
2025-12-17 14:28:27.218,-0.26,0.24,9.11,-0.01,-0.08,0.13
2025-12-17 14:28:27.241,-0.31,0.23,8.96,-0.01,-0.08,0.13
2025-12-17 14:28:27.264,-0.29,0.17,8.98,-0.01,-0.08,0.13
2025-12-17 14:28:27.287,-0.3,0.16,8.99,-0.01,-0.08,0.12
2025-12-17 14:28:27.310,-0.29,0.09,9.08,-0.01,-0.08,0.13
2025-12-17 14:28:27.333,-0.21,0.17,9.0,-0.01,-0.08,0.12
2025-12-17 14:28:27.355,-0.19,0.23,9.04,-0.0,-0.08,0.13
2025-12-17 14:28:27.378,-0.28,0.19,9.11,-0.0,-0.08,0.13
2025-12-17 14:28:27.401,-0.21,0.12,9.05,-0.0,-0.08,0.13
2025-12-17 14:28:27.424,-0.18,0.17,9.06,-0.01,-0.08,0.12
2025-12-17 14:28:27.447,-0.2,0.17,9.0,-0.01,-0.08,0.12
2025-12-17 14:28:27.471,-0.22,0.21,8.97,-0.01,-0.08,0.13
2025-12-17 14:28:27.494,-0.16,0.22,9.04,-0.01,-0.08,0.13
2025-12-17 14:28:27.517,-0.21,0.18,9.03,-0.01,-0.08,0.12
2025-12-17 14:28:27.540,-0.25,0.21,8.95,-0.01,-0.08,0.12
2025-12-17 14:28:27.563,-0.28,0.21,9.13,-0.01,-0.08,0.12
2025-12-17 14:28:27.586,-0.21,0.13,9.05,-0.01,-0.08,0.13
2025-12-17 14:28:27.609,-0.28,0.18,8.97,-0.01,-0.08,0.13
2025-12-17 14:28:27.632,-0.24,0.16,8.97,-0.01,-0.08,0.13
2025-12-17 14:28:27.655,-0.22,0.17,9.04,-0.0,-0.08,0.13
2025-12-17 14:28:27.678,-0.22,0.19,8.95,-0.0,-0.08,0.13
2025-12-17 14:28:27.701,-0.22,0.24,9.01,-0.01,-0.08,0.13
2025-12-17 14:28:27.724,-0.13,0.11,9.02,-0.01,-0.08,0.13
2025-12-17 14:28:27.746,-0.13,0.22,9.05,-0.01,-0.08,0.13
2025-12-17 14:28:27.770,-0.22,0.23,9.05,-0.01,-0.08,0.13
2025-12-17 14:28:27.793,-0.16,0.13,9.0,-0.01,-0.08,0.12
2025-12-17 14:28:27.816,-0.21,0.17,9.05,-0.01,-0.08,0.13
2025-12-17 14:28:27.839,-0.2,0.17,9.02,-0.01,-0.08,0.13
2025-12-17 14:28:27.862,-0.19,0.16,9.09,-0.01,-0.08,0.13
2025-12-17 14:28:27.885,-0.33,0.2,8.95,-0.0,-0.08,0.13
2025-12-17 14:28:27.908,-0.23,0.22,9.02,-0.0,-0.08,0.13
2025-12-17 14:28:27.931,-0.26,0.15,9.0,-0.0,-0.08,0.13
2025-12-17 14:28:27.953,-0.26,0.2,9.07,-0.01,-0.08,0.13
2025-12-17 14:28:27.976,-0.23,0.15,9.03,-0.01,-0.08,0.13
2025-12-17 14:28:27.999,-0.25,0.22,9.04,-0.01,-0.08,0.13
2025-12-17 14:28:28.022,-0.21,0.15,9.01,-0.01,-0.08,0.13
2025-12-17 14:28:28.046,-0.15,0.2,9.03,-0.01,-0.08,0.13
2025-12-17 14:28:28.069,-0.25,0.22,9.05,-0.01,-0.08,0.12
2025-12-17 14:28:28.092,-0.19,0.22,9.0,-0.01,-0.08,0.13
2025-12-17 14:28:28.115,-0.16,0.19,9.05,-0.01,-0.08,0.13
2025-12-17 14:28:28.138,-0.19,0.14,9.11,-0.01,-0.08,0.13
2025-12-17 14:28:28.161,-0.27,0.15,9.03,-0.0,-0.08,0.12
2025-12-17 14:28:28.184,-0.24,0.2,9.1,-0.01,-0.08,0.13
2025-12-17 14:28:28.206,-0.25,0.25,8.98,-0.0,-0.08,0.13
2025-12-17 14:28:28.229,-0.22,0.27,9.03,-0.01,-0.08,0.13
2025-12-17 14:28:28.252,-0.22,0.13,9.04,-0.01,-0.08,0.12
2025-12-17 14:28:28.275,-0.27,0.21,9.0,-0.01,-0.08,0.13
2025-12-17 14:28:28.298,-0.21,0.25,8.95,-0.01,-0.08,0.13
2025-12-17 14:28:28.321,-0.14,0.18,9.1,-0.01,-0.08,0.13
2025-12-17 14:28:28.345,-0.2,0.14,9.03,-0.01,-0.08,0.13
2025-12-17 14:28:28.368,-0.16,0.2,9.06,-0.01,-0.08,0.13
2025-12-17 14:28:28.391,-0.22,0.11,8.98,-0.01,-0.08,0.13
2025-12-17 14:28:28.414,-0.22,0.11,9.0,-0.01,-0.07,0.12
2025-12-17 14:28:28.437,-0.25,0.2,9.05,-0.0,-0.08,0.13
2025-12-17 14:28:28.460,-0.25,0.15,9.08,-0.01,-0.08,0.13
2025-12-17 14:28:28.483,-0.22,0.18,9.08,-0.0,-0.08,0.13
2025-12-17 14:28:28.506,-0.27,0.22,9.05,-0.0,-0.08,0.13
2025-12-17 14:28:28.529,-0.25,0.28,9.08,-0.01,-0.08,0.12
2025-12-17 14:28:28.552,-0.23,0.15,9.03,-0.01,-0.08,0.13
2025-12-17 14:28:28.575,-0.18,0.24,9.04,-0.01,-0.08,0.13
2025-12-17 14:28:28.598,-0.21,0.17,8.99,-0.01,-0.08,0.13
2025-12-17 14:28:28.621,-0.24,0.15,9.02,-0.01,-0.08,0.13
2025-12-17 14:28:28.644,-0.23,0.17,9.09,-0.01,-0.08,0.13
2025-12-17 14:28:28.667,-0.22,0.09,9.08,-0.01,-0.08,0.13
2025-12-17 14:28:28.690,-0.18,0.12,9.02,-0.01,-0.08,0.13
2025-12-17 14:28:28.713,-0.31,0.11,9.07,-0.0,-0.08,0.13
2025-12-17 14:28:28.736,-0.22,0.23,9.08,-0.01,-0.08,0.13
2025-12-17 14:28:28.759,-0.2,0.25,9.06,-0.01,-0.08,0.13
2025-12-17 14:28:28.782,-0.19,0.2,9.07,-0.01,-0.08,0.12
2025-12-17 14:28:28.804,-0.22,0.19,9.0,-0.01,-0.08,0.12
2025-12-17 14:28:28.828,-0.24,0.23,8.97,-0.01,-0.08,0.12
2025-12-17 14:28:28.851,-0.22,0.2,9.05,-0.01,-0.08,0.13
2025-12-17 14:28:28.874,-0.26,0.13,9.02,-0.01,-0.08,0.13
2025-12-17 14:28:28.897,-0.25,0.15,9.02,-0.01,-0.08,0.12
2025-12-17 14:28:28.920,-0.29,0.13,9.07,-0.01,-0.08,0.13
2025-12-17 14:28:28.943,-0.27,0.2,9.08,-0.01,-0.08,0.12
2025-12-17 14:28:28.966,-0.17,0.12,9.07,-0.01,-0.08,0.13
2025-12-17 14:28:28.989,-0.18,0.08,9.06,-0.01,-0.08,0.13
2025-12-17 14:28:29.011,-0.19,0.16,9.03,-0.0,-0.08,0.13
2025-12-17 14:28:29.034,-0.17,0.25,9.06,-0.0,-0.08,0.12
2025-12-17 14:28:29.057,-0.18,0.19,9.06,-0.0,-0.08,0.13
2025-12-17 14:28:29.080,-0.24,0.22,9.0,-0.01,-0.08,0.13
2025-12-17 14:28:29.104,-0.23,0.14,8.98,-0.01,-0.08,0.13
2025-12-17 14:28:29.127,-0.19,0.21,9.0,-0.01,-0.08,0.13
2025-12-17 14:28:29.150,-0.26,0.18,9.04,-0.01,-0.08,0.12
2025-12-17 14:28:29.173,-0.23,0.14,8.98,-0.01,-0.08,0.13
2025-12-17 14:28:29.196,-0.23,0.15,9.0,-0.01,-0.08,0.13
2025-12-17 14:28:29.219,-0.26,0.18,8.96,-0.01,-0.08,0.13
2025-12-17 14:28:29.242,-0.26,0.22,8.97,-0.01,-0.08,0.13
2025-12-17 14:28:29.265,-0.2,0.16,9.04,-0.01,-0.08,0.13
2025-12-17 14:28:29.288,-0.28,0.2,8.95,-0.0,-0.08,0.13
2025-12-17 14:28:29.311,-0.16,0.17,9.0,-0.01,-0.08,0.13
2025-12-17 14:28:29.333,-0.21,0.26,9.01,-0.01,-0.08,0.12
2025-12-17 14:28:29.356,-0.19,0.25,9.08,-0.01,-0.08,0.13
2025-12-17 14:28:29.379,-0.19,0.2,9.0,-0.01,-0.08,0.13
2025-12-17 14:28:29.402,-0.19,0.2,8.96,-0.01,-0.08,0.12
2025-12-17 14:28:29.426,-0.26,0.13,9.12,-0.01,-0.08,0.13
2025-12-17 14:28:29.449,-0.26,0.13,9.08,-0.01,-0.08,0.12
2025-12-17 14:28:29.472,-0.19,0.15,9.02,-0.01,-0.08,0.13
2025-12-17 14:28:29.495,-0.27,0.05,9.06,-0.0,-0.08,0.13
2025-12-17 14:28:29.518,-0.26,0.15,9.02,-0.01,-0.08,0.13
2025-12-17 14:28:29.541,-0.32,0.19,8.99,-0.01,-0.08,0.12
2025-12-17 14:28:29.564,-0.23,0.2,8.99,-0.0,-0.08,0.13
2025-12-17 14:28:29.587,-0.22,0.21,9.0,-0.01,-0.08,0.13
2025-12-17 14:28:29.610,-0.18,0.17,9.1,-0.01,-0.08,0.13
2025-12-17 14:28:29.633,-0.13,0.21,8.98,-0.0,-0.08,0.13
2025-12-17 14:28:29.656,-0.19,0.13,9.05,-0.01,-0.08,0.13
2025-12-17 14:28:29.679,-0.18,0.14,8.93,-0.01,-0.08,0.13
2025-12-17 14:28:29.702,-0.18,0.19,9.02,-0.01,-0.08,0.13
2025-12-17 14:28:29.725,-0.24,0.08,9.04,-0.01,-0.08,0.13
2025-12-17 14:28:29.748,-0.29,0.08,9.05,-0.01,-0.08,0.13
2025-12-17 14:28:29.771,-0.29,0.09,9.03,-0.01,-0.08,0.12
2025-12-17 14:28:29.794,-0.3,0.1,9.0,-0.01,-0.08,0.13
2025-12-17 14:28:29.817,-0.24,0.22,8.99,-0.0,-0.08,0.13
2025-12-17 14:28:29.840,-0.24,0.21,8.98,-0.0,-0.08,0.13
2025-12-17 14:28:29.863,-0.27,0.22,9.0,-0.01,-0.08,0.13
2025-12-17 14:28:29.886,-0.21,0.2,9.01,-0.01,-0.08,0.13
2025-12-17 14:28:29.909,-0.25,0.19,9.08,-0.01,-0.08,0.13
2025-12-17 14:28:29.931,-0.2,0.2,8.99,-0.01,-0.08,0.13
2025-12-17 14:28:29.954,-0.2,0.15,8.99,-0.01,-0.08,0.13
2025-12-17 14:28:29.977,-0.18,0.25,9.04,-0.01,-0.08,0.13
2025-12-17 14:28:30.000,-0.16,0.21,8.99,-0.01,-0.08,0.13
2025-12-17 14:28:30.024,-0.21,0.14,9.0,-0.01,-0.08,0.12
2025-12-17 14:28:30.047,-0.24,0.07,9.05,-0.01,-0.08,0.13
2025-12-17 14:28:30.070,-0.21,0.1,9.09,-0.01,-0.08,0.12
2025-12-17 14:28:30.093,-0.29,0.12,9.05,-0.01,-0.08,0.13
2025-12-17 14:28:30.115,-0.26,0.2,9.04,-0.0,-0.08,0.12
2025-12-17 14:28:30.138,-0.25,0.28,9.0,-0.01,-0.08,0.13
2025-12-17 14:28:30.162,-0.25,0.27,9.0,-0.0,-0.08,0.13
2025-12-17 14:28:30.185,-0.23,0.19,9.03,-0.01,-0.08,0.13
2025-12-17 14:28:30.208,-0.24,0.11,9.02,-0.01,-0.08,0.13
2025-12-17 14:28:30.231,-0.2,0.19,9.09,-0.01,-0.08,0.13
2025-12-17 14:28:30.254,-0.13,0.14,9.04,-0.01,-0.08,0.13
2025-12-17 14:28:30.277,-0.15,0.21,9.07,-0.01,-0.08,0.13
2025-12-17 14:28:30.300,-0.23,0.17,8.96,-0.01,-0.08,0.13
2025-12-17 14:28:30.323,-0.23,0.11,9.02,-0.01,-0.08,0.13
2025-12-17 14:28:30.345,-0.17,0.13,9.05,-0.01,-0.08,0.13
2025-12-17 14:28:30.368,-0.16,0.19,8.95,-0.01,-0.08,0.13
2025-12-17 14:28:30.391,-0.21,0.23,9.01,-0.0,-0.08,0.13
2025-12-17 14:28:30.414,-0.22,0.19,9.02,0.0,-0.08,0.12
2025-12-17 14:28:30.437,-0.17,0.24,9.0,-0.01,-0.08,0.13
2025-12-17 14:28:30.461,-0.3,0.23,9.05,-0.01,-0.08,0.13
2025-12-17 14:28:30.484,-0.27,0.17,9.05,-0.01,-0.08,0.13
2025-12-17 14:28:30.507,-0.23,0.16,8.98,-0.01,-0.08,0.13
2025-12-17 14:28:30.530,-0.23,0.22,9.05,-0.01,-0.08,0.13
2025-12-17 14:28:30.553,-0.17,0.09,8.99,-0.01,-0.08,0.13
2025-12-17 14:28:30.576,-0.27,0.11,9.1,-0.01,-0.08,0.12
2025-12-17 14:28:30.599,-0.19,0.14,9.02,-0.01,-0.08,0.13
2025-12-17 14:28:30.622,-0.12,0.12,9.12,-0.0,-0.08,0.13
2025-12-17 14:28:30.645,-0.18,0.17,9.07,-0.0,-0.08,0.12
2025-12-17 14:28:30.672,-0.25,0.23,9.05,-0.0,-0.08,0.13
2025-12-17 14:28:30.691,-0.23,0.2,9.08,-0.0,-0.08,0.13
2025-12-17 14:28:30.714,-0.18,0.23,8.94,-0.01,-0.08,0.13
2025-12-17 14:28:30.736,-0.21,0.26,8.99,-0.01,-0.08,0.13
2025-12-17 14:28:30.759,-0.26,0.2,9.04,-0.01,-0.08,0.13
2025-12-17 14:28:30.782,-0.26,0.16,9.03,-0.01,-0.08,0.13
2025-12-17 14:28:30.805,-0.15,0.14,9.12,-0.01,-0.08,0.13
2025-12-17 14:28:30.829,-0.21,0.18,9.13,-0.01,-0.08,0.13
2025-12-17 14:28:30.852,-0.24,0.13,9.05,-0.01,-0.08,0.13
2025-12-17 14:28:30.875,-0.27,0.16,9.06,-0.01,-0.08,0.13
2025-12-17 14:28:30.898,-0.21,0.11,9.11,-0.01,-0.08,0.13
2025-12-17 14:28:30.921,-0.24,0.1,9.0,-0.0,-0.08,0.13
2025-12-17 14:28:30.944,-0.27,0.21,9.02,-0.0,-0.08,0.13
2025-12-17 14:28:30.966,-0.13,0.19,9.05,-0.01,-0.08,0.13
2025-12-17 14:28:30.990,-0.19,0.2,9.01,-0.01,-0.08,0.13
2025-12-17 14:28:31.013,-0.14,0.24,9.07,-0.01,-0.08,0.13
2025-12-17 14:28:31.036,-0.22,0.22,9.06,-0.01,-0.08,0.13
2025-12-17 14:28:31.059,-0.19,0.16,9.05,-0.01,-0.08,0.13
2025-12-17 14:28:31.082,-0.23,0.24,8.98,-0.01,-0.08,0.13
2025-12-17 14:28:31.105,-0.21,0.19,9.02,-0.02,-0.08,0.13
2025-12-17 14:28:31.128,-0.29,0.12,8.99,-0.01,-0.08,0.13
2025-12-17 14:28:31.151,-0.34,0.18,9.09,-0.01,-0.08,0.12
2025-12-17 14:28:31.174,-0.25,0.19,9.0,-0.01,-0.08,0.13
2025-12-17 14:28:31.197,-0.18,0.12,9.03,-0.01,-0.08,0.13
2025-12-17 14:28:31.220,-0.21,0.18,9.09,-0.0,-0.08,0.13
2025-12-17 14:28:31.243,-0.18,0.16,9.03,-0.0,-0.08,0.12
2025-12-17 14:28:31.266,-0.13,0.2,9.04,-0.0,-0.08,0.13
2025-12-17 14:28:31.289,-0.22,0.26,9.02,-0.01,-0.08,0.12
2025-12-17 14:28:31.312,-0.23,0.28,9.01,-0.01,-0.08,0.12
2025-12-17 14:28:31.335,-0.23,0.2,9.06,-0.01,-0.08,0.13
2025-12-17 14:28:31.357,-0.18,0.19,8.94,-0.01,-0.08,0.13
2025-12-17 14:28:31.381,-0.18,0.19,8.94,-0.01,-0.08,0.13
2025-12-17 14:28:31.404,-0.24,0.09,9.12,-0.01,-0.08,0.13
2025-12-17 14:28:31.427,-0.29,0.18,8.96,-0.01,-0.08,0.13
2025-12-17 14:28:31.450,-0.2,0.12,9.0,-0.01,-0.08,0.12
2025-12-17 14:28:31.473,-0.27,0.15,9.07,-0.01,-0.08,0.13
2025-12-17 14:28:31.496,-0.21,0.06,9.08,-0.0,-0.08,0.13
2025-12-17 14:28:31.519,-0.29,0.19,9.03,-0.0,-0.08,0.12
2025-12-17 14:28:31.542,-0.19,0.22,8.95,-0.01,-0.08,0.13
2025-12-17 14:28:31.565,-0.18,0.23,9.06,-0.01,-0.08,0.12
2025-12-17 14:28:31.588,-0.2,0.28,9.1,-0.01,-0.08,0.13
2025-12-17 14:28:31.611,-0.16,0.24,9.03,-0.01,-0.08,0.13
2025-12-17 14:28:31.633,-0.19,0.19,9.07,-0.01,-0.08,0.13
2025-12-17 14:28:31.656,-0.15,0.17,9.01,-0.01,-0.08,0.13
2025-12-17 14:28:31.679,-0.21,0.2,8.96,-0.01,-0.08,0.13
2025-12-17 14:28:31.702,-0.25,0.23,9.13,-0.01,-0.08,0.13
2025-12-17 14:28:31.725,-0.27,0.09,9.07,-0.01,-0.08,0.13
2025-12-17 14:28:31.748,-0.27,0.12,9.01,-0.01,-0.08,0.13
2025-12-17 14:28:31.771,-0.23,0.08,9.16,-0.01,-0.08,0.13
2025-12-17 14:28:31.794,-0.27,0.09,9.04,-0.0,-0.08,0.13
2025-12-17 14:28:31.818,-0.29,0.2,9.02,-0.01,-0.08,0.12
2025-12-17 14:28:31.841,-0.24,0.22,8.96,-0.01,-0.08,0.13
2025-12-17 14:28:31.864,-0.23,0.19,9.01,-0.01,-0.08,0.13
2025-12-17 14:28:31.886,-0.15,0.25,9.01,-0.01,-0.08,0.13
2025-12-17 14:28:31.909,-0.2,0.19,9.04,-0.01,-0.08,0.13
2025-12-17 14:28:31.933,-0.19,0.18,9.06,-0.01,-0.08,0.13
2025-12-17 14:28:31.956,-0.13,0.14,8.99,-0.01,-0.08,0.13
2025-12-17 14:28:31.979,-0.17,0.16,9.12,-0.01,-0.08,0.12
2025-12-17 14:28:32.002,-0.23,0.1,9.18,-0.01,-0.08,0.13
2025-12-17 14:28:32.025,-0.32,0.21,9.01,-0.01,-0.08,0.13
2025-12-17 14:28:32.048,-0.24,0.09,9.09,-0.01,-0.08,0.12
2025-12-17 14:28:32.071,-0.24,0.12,9.08,-0.0,-0.08,0.13
2025-12-17 14:28:32.094,-0.33,0.2,9.08,-0.0,-0.08,0.13
2025-12-17 14:28:32.117,-0.32,0.24,9.04,-0.0,-0.08,0.13
2025-12-17 14:28:32.140,-0.22,0.25,9.05,-0.01,-0.08,0.13
2025-12-17 14:28:32.163,-0.25,0.31,8.95,-0.01,-0.08,0.13
2025-12-17 14:28:32.186,-0.14,0.21,9.11,-0.01,-0.08,0.13
2025-12-17 14:28:32.209,-0.16,0.19,8.99,-0.01,-0.08,0.12
2025-12-17 14:28:32.231,-0.19,0.2,9.11,-0.01,-0.08,0.13
2025-12-17 14:28:32.254,-0.1,0.21,9.06,-0.01,-0.08,0.13
2025-12-17 14:28:32.277,-0.12,0.11,9.04,-0.01,-0.08,0.12
2025-12-17 14:28:32.300,-0.25,0.21,9.12,-0.0,-0.08,0.13
2025-12-17 14:28:32.324,-0.24,0.1,9.09,-0.01,-0.08,0.13
2025-12-17 14:28:32.347,-0.3,0.07,9.03,-0.01,-0.08,0.12
2025-12-17 14:28:32.370,-0.32,0.17,8.97,-0.0,-0.08,0.12
2025-12-17 14:28:32.393,-0.22,0.18,9.04,-0.0,-0.08,0.13
2025-12-17 14:28:32.416,-0.22,0.23,9.07,-0.0,-0.08,0.13
2025-12-17 14:28:32.439,-0.25,0.29,9.1,-0.01,-0.08,0.12
2025-12-17 14:28:32.462,-0.25,0.27,9.06,-0.01,-0.08,0.13
2025-12-17 14:28:32.485,-0.19,0.2,8.94,-0.01,-0.08,0.13
2025-12-17 14:28:32.508,-0.22,0.18,9.09,-0.01,-0.08,0.13
2025-12-17 14:28:32.531,-0.17,0.12,9.0,-0.01,-0.08,0.13
2025-12-17 14:28:32.554,-0.15,0.16,9.08,-0.01,-0.08,0.13
2025-12-17 14:28:32.577,-0.17,0.14,9.13,-0.01,-0.08,0.13
2025-12-17 14:28:32.600,-0.14,0.13,8.99,-0.0,-0.08,0.13
2025-12-17 14:28:32.622,-0.23,0.19,9.02,-0.01,-0.08,0.13
2025-12-17 14:28:32.645,-0.27,0.19,9.02,-0.0,-0.08,0.13
2025-12-17 14:28:32.669,-0.24,0.21,9.01,-0.01,-0.08,0.13
2025-12-17 14:28:32.692,-0.2,0.21,9.04,-0.0,-0.08,0.13
2025-12-17 14:28:32.715,-0.27,0.24,9.12,-0.01,-0.08,0.13
2025-12-17 14:28:32.738,-0.26,0.18,9.01,-0.01,-0.08,0.13
2025-12-17 14:28:32.761,-0.23,0.18,8.96,-0.01,-0.08,0.13
2025-12-17 14:28:32.784,-0.22,0.26,9.07,-0.01,-0.08,0.13
2025-12-17 14:28:32.807,-0.22,0.15,8.95,-0.01,-0.08,0.13
2025-12-17 14:28:32.830,-0.18,0.15,9.04,-0.01,-0.08,0.12
2025-12-17 14:28:32.853,-0.18,0.08,9.05,-0.01,-0.08,0.13
2025-12-17 14:28:32.875,-0.11,0.13,9.06,-0.01,-0.08,0.13
2025-12-17 14:28:32.899,-0.12,0.13,9.05,-0.0,-0.08,0.13
2025-12-17 14:28:32.922,-0.2,0.17,9.02,-0.0,-0.08,0.12
2025-12-17 14:28:32.945,-0.23,0.27,9.02,-0.01,-0.08,0.13
2025-12-17 14:28:32.968,-0.24,0.16,9.09,-0.01,-0.08,0.12
2025-12-17 14:28:32.991,-0.21,0.2,9.05,-0.01,-0.08,0.13
2025-12-17 14:28:33.014,-0.22,0.21,8.92,-0.0,-0.08,0.13
2025-12-17 14:28:33.037,-0.28,0.17,9.11,-0.01,-0.08,0.13
2025-12-17 14:28:33.060,-0.2,0.22,9.05,-0.01,-0.08,0.13
2025-12-17 14:28:33.083,-0.29,0.14,9.1,-0.01,-0.08,0.13
2025-12-17 14:28:33.106,-0.22,0.13,9.08,-0.01,-0.08,0.12
2025-12-17 14:28:33.129,-0.23,0.17,9.09,-0.01,-0.08,0.13
2025-12-17 14:28:33.152,-0.17,0.16,9.04,-0.0,-0.08,0.13
2025-12-17 14:28:33.175,-0.17,0.14,8.98,-0.0,-0.08,0.13
2025-12-17 14:28:33.198,-0.2,0.16,9.03,-0.0,-0.08,0.13
2025-12-17 14:28:33.221,-0.25,0.2,9.12,-0.01,-0.08,0.13
2025-12-17 14:28:33.244,-0.23,0.21,9.0,-0.01,-0.08,0.13
2025-12-17 14:28:33.267,-0.25,0.24,9.03,-0.01,-0.08,0.13
2025-12-17 14:28:33.290,-0.23,0.22,8.96,-0.01,-0.08,0.13
2025-12-17 14:28:33.313,-0.21,0.22,8.99,-0.01,-0.08,0.13
2025-12-17 14:28:33.336,-0.23,0.22,9.13,-0.01,-0.08,0.13
2025-12-17 14:28:33.359,-0.3,0.1,9.11,-0.01,-0.08,0.13
2025-12-17 14:28:33.381,-0.19,0.14,9.01,-0.01,-0.08,0.13
2025-12-17 14:28:33.404,-0.19,0.19,9.06,-0.01,-0.08,0.13
2025-12-17 14:28:33.427,-0.22,0.18,9.04,-0.01,-0.08,0.13
2025-12-17 14:28:33.451,-0.21,0.18,9.13,-0.0,-0.08,0.13
2025-12-17 14:28:33.474,-0.21,0.17,8.96,-0.01,-0.08,0.12
2025-12-17 14:28:33.497,-0.19,0.17,9.08,-0.01,-0.08,0.13
2025-12-17 14:28:33.520,-0.13,0.19,8.99,-0.01,-0.08,0.12
2025-12-17 14:28:33.543,-0.18,0.18,9.04,-0.01,-0.08,0.12
2025-12-17 14:28:33.566,-0.25,0.23,9.1,-0.01,-0.08,0.13
2025-12-17 14:28:33.589,-0.21,0.23,9.01,-0.01,-0.08,0.13
2025-12-17 14:28:33.612,-0.2,0.1,8.94,-0.01,-0.08,0.13
2025-12-17 14:28:33.635,-0.23,0.23,9.04,-0.01,-0.08,0.13
2025-12-17 14:28:33.658,-0.22,0.2,9.04,-0.01,-0.09,0.13
2025-12-17 14:28:33.681,-0.25,0.18,9.02,-0.01,-0.08,0.13
2025-12-17 14:28:33.704,-0.21,0.21,9.13,-0.01,-0.08,0.13
2025-12-17 14:28:33.727,-0.21,0.12,9.01,-0.0,-0.08,0.13
2025-12-17 14:28:33.750,-0.22,0.14,9.05,-0.0,-0.08,0.13
2025-12-17 14:28:33.773,-0.22,0.17,9.05,-0.0,-0.08,0.13
2025-12-17 14:28:33.796,-0.19,0.21,9.04,-0.01,-0.08,0.13
2025-12-17 14:28:33.819,-0.24,0.26,9.02,-0.01,-0.08,0.13
2025-12-17 14:28:33.842,-0.2,0.23,9.06,-0.01,-0.08,0.12
2025-12-17 14:28:33.865,-0.2,0.14,9.01,-0.01,-0.08,0.13
2025-12-17 14:28:33.888,-0.23,0.16,9.04,-0.01,-0.08,0.13
2025-12-17 14:28:33.911,-0.25,0.2,9.05,-0.01,-0.08,0.13
2025-12-17 14:28:33.934,-0.19,0.22,9.0,-0.0,-0.08,0.13
2025-12-17 14:28:33.957,-0.19,0.16,9.07,-0.01,-0.08,0.13
2025-12-17 14:28:33.980,-0.26,0.22,9.01,-0.01,-0.08,0.13
2025-12-17 14:28:34.003,-0.22,0.23,9.03,-0.01,-0.08,0.13
2025-12-17 14:28:34.026,-0.17,0.2,9.02,-0.01,-0.08,0.13
2025-12-17 14:28:34.049,-0.17,0.11,9.09,-0.0,-0.08,0.13
2025-12-17 14:28:34.071,-0.17,0.21,9.0,-0.01,-0.08,0.13
2025-12-17 14:28:34.094,-0.21,0.18,9.01,-0.01,-0.08,0.13
2025-12-17 14:28:34.117,-0.22,0.18,8.97,-0.01,-0.08,0.13
2025-12-17 14:28:34.141,-0.23,0.24,9.06,-0.01,-0.08,0.13
2025-12-17 14:28:34.164,-0.22,0.12,9.02,-0.01,-0.08,0.13
2025-12-17 14:28:34.187,-0.23,0.13,8.99,-0.01,-0.08,0.13
2025-12-17 14:28:34.210,-0.35,0.18,9.17,-0.01,-0.08,0.12
2025-12-17 14:28:34.233,-0.27,0.16,9.07,-0.01,-0.08,0.13
2025-12-17 14:28:34.256,-0.21,0.18,9.04,-0.01,-0.08,0.12
2025-12-17 14:28:34.279,-0.21,0.17,8.96,-0.01,-0.08,0.13
2025-12-17 14:28:34.302,-0.2,0.11,9.06,-0.01,-0.08,0.13
2025-12-17 14:28:34.325,-0.24,0.23,8.91,-0.0,-0.08,0.13
2025-12-17 14:28:34.348,-0.2,0.17,9.09,-0.01,-0.08,0.13
2025-12-17 14:28:34.371,-0.22,0.14,8.96,-0.01,-0.08,0.13
2025-12-17 14:28:34.394,-0.22,0.11,9.11,-0.01,-0.08,0.13
2025-12-17 14:28:34.417,-0.2,0.24,8.97,-0.01,-0.08,0.13
2025-12-17 14:28:34.440,-0.26,0.15,9.02,-0.01,-0.08,0.13
2025-12-17 14:28:34.462,-0.25,0.12,9.01,-0.01,-0.08,0.12
2025-12-17 14:28:34.486,-0.23,0.26,9.11,-0.01,-0.08,0.13
2025-12-17 14:28:34.508,-0.19,0.12,9.11,-0.01,-0.08,0.13
2025-12-17 14:28:34.532,-0.2,0.11,8.99,-0.01,-0.08,0.12
2025-12-17 14:28:34.554,-0.24,0.24,8.97,-0.01,-0.08,0.13
2025-12-17 14:28:34.578,-0.26,0.17,9.02,-0.01,-0.08,0.13
2025-12-17 14:28:34.601,-0.21,0.16,8.98,-0.01,-0.08,0.12
2025-12-17 14:28:34.624,-0.23,0.22,9.04,-0.01,-0.08,0.13
2025-12-17 14:28:34.647,-0.16,0.11,9.04,-0.01,-0.08,0.13
2025-12-17 14:28:34.670,-0.19,0.23,9.05,-0.01,-0.08,0.13
2025-12-17 14:28:34.693,-0.23,0.28,9.06,-0.0,-0.08,0.13
2025-12-17 14:28:34.716,-0.24,0.2,9.01,-0.01,-0.08,0.13
2025-12-17 14:28:34.739,-0.24,0.17,9.0,-0.01,-0.08,0.13
2025-12-17 14:28:34.762,-0.23,0.25,9.09,-0.01,-0.08,0.12
2025-12-17 14:28:34.785,-0.21,0.18,9.03,-0.01,-0.08,0.13
2025-12-17 14:28:34.807,-0.2,0.17,9.08,-0.01,-0.08,0.13
2025-12-17 14:28:34.830,-0.22,0.22,9.1,-0.01,-0.08,0.13
2025-12-17 14:28:34.854,-0.19,0.17,8.99,-0.01,-0.08,0.13
2025-12-17 14:28:34.877,-0.26,0.22,8.95,-0.01,-0.08,0.12
2025-12-17 14:28:34.900,-0.22,0.22,9.0,-0.01,-0.08,0.13
2025-12-17 14:28:34.923,-0.16,0.12,9.07,-0.0,-0.08,0.13
2025-12-17 14:28:34.946,-0.2,0.19,9.07,-0.01,-0.08,0.13
2025-12-17 14:28:34.969,-0.26,0.17,9.06,-0.01,-0.08,0.13
2025-12-17 14:28:34.992,-0.25,0.14,9.07,-0.01,-0.08,0.13
2025-12-17 14:28:35.015,-0.19,0.19,9.08,-0.01,-0.08,0.13
2025-12-17 14:28:35.038,-0.17,0.27,9.11,-0.01,-0.08,0.12
2025-12-17 14:28:35.061,-0.16,0.19,9.04,-0.01,-0.08,0.13
2025-12-17 14:28:35.084,-0.17,0.17,9.08,-0.01,-0.07,0.13
2025-12-17 14:28:35.107,-0.23,0.17,9.07,-0.01,-0.08,0.13
2025-12-17 14:28:35.130,-0.22,0.21,8.98,-0.01,-0.08,0.12
2025-12-17 14:28:35.152,-0.24,0.09,9.03,-0.01,-0.08,0.12
2025-12-17 14:28:35.175,-0.33,0.21,9.01,-0.01,-0.08,0.13
2025-12-17 14:28:35.199,-0.29,0.13,8.99,-0.0,-0.08,0.13
2025-12-17 14:28:35.222,-0.2,0.08,9.05,-0.01,-0.08,0.13
2025-12-17 14:28:35.245,-0.21,0.13,9.02,-0.0,-0.08,0.12
2025-12-17 14:28:35.268,-0.27,0.24,8.97,-0.01,-0.08,0.12
2025-12-17 14:28:35.291,-0.2,0.22,8.97,-0.01,-0.08,0.13
2025-12-17 14:28:35.314,-0.13,0.22,8.99,-0.01,-0.08,0.13
2025-12-17 14:28:35.337,-0.14,0.2,9.07,-0.01,-0.08,0.13
2025-12-17 14:28:35.360,-0.16,0.17,9.03,-0.01,-0.08,0.13
2025-12-17 14:28:35.383,-0.23,0.17,8.97,-0.01,-0.08,0.13
2025-12-17 14:28:35.406,-0.19,0.16,9.03,-0.01,-0.08,0.13
2025-12-17 14:28:35.429,-0.24,0.17,9.07,-0.01,-0.08,0.13
2025-12-17 14:28:35.452,-0.31,0.16,9.04,-0.01,-0.08,0.12
2025-12-17 14:28:35.475,-0.22,0.14,9.0,-0.01,-0.08,0.13
2025-12-17 14:28:35.498,-0.14,0.13,8.99,-0.0,-0.08,0.13
2025-12-17 14:28:35.521,-0.25,0.17,8.97,-0.0,-0.08,0.13
2025-12-17 14:28:35.543,-0.29,0.19,8.96,-0.01,-0.08,0.13
2025-12-17 14:28:35.566,-0.18,0.13,9.03,-0.01,-0.08,0.13
2025-12-17 14:28:35.590,-0.18,0.2,9.04,-0.01,-0.08,0.13
2025-12-17 14:28:35.613,-0.23,0.23,9.11,-0.01,-0.08,0.12
2025-12-17 14:28:35.636,-0.22,0.2,9.09,-0.01,-0.08,0.12
2025-12-17 14:28:35.659,-0.15,0.15,8.99,-0.01,-0.08,0.13
2025-12-17 14:28:35.682,-0.22,0.2,9.03,-0.01,-0.08,0.13
2025-12-17 14:28:35.705,-0.22,0.21,9.03,-0.01,-0.08,0.12
2025-12-17 14:28:35.728,-0.23,0.12,9.02,-0.01,-0.08,0.13
2025-12-17 14:28:35.751,-0.24,0.15,9.05,-0.01,-0.08,0.13
2025-12-17 14:28:35.774,-0.25,0.13,9.02,-0.01,-0.08,0.13
2025-12-17 14:28:35.797,-0.21,0.14,9.04,-0.01,-0.08,0.13
2025-12-17 14:28:35.820,-0.24,0.2,9.01,-0.0,-0.08,0.12
2025-12-17 14:28:35.843,-0.23,0.16,9.02,-0.01,-0.08,0.13
2025-12-17 14:28:35.866,-0.23,0.2,8.96,-0.01,-0.08,0.13
2025-12-17 14:28:35.888,-0.22,0.16,8.98,-0.01,-0.08,0.12
2025-12-17 14:28:35.911,-0.14,0.19,9.09,-0.01,-0.08,0.12
2025-12-17 14:28:35.934,-0.18,0.2,8.95,-0.01,-0.08,0.13
2025-12-17 14:28:35.958,-0.26,0.2,9.07,-0.01,-0.08,0.13
2025-12-17 14:28:35.981,-0.19,0.13,8.98,-0.01,-0.08,0.13
2025-12-17 14:28:36.004,-0.25,0.07,9.04,-0.01,-0.08,0.13
2025-12-17 14:28:36.027,-0.23,0.16,8.99,-0.01,-0.08,0.13
2025-12-17 14:28:36.050,-0.33,0.13,9.01,-0.01,-0.08,0.13
2025-12-17 14:28:36.073,-0.27,0.16,9.0,-0.0,-0.08,0.13
2025-12-17 14:28:36.096,-0.24,0.17,9.0,-0.0,-0.08,0.13
2025-12-17 14:28:36.119,-0.27,0.27,9.06,-0.01,-0.08,0.13
2025-12-17 14:28:36.142,-0.14,0.24,8.99,-0.01,-0.08,0.12
2025-12-17 14:28:36.165,-0.22,0.22,9.02,-0.01,-0.08,0.13
2025-12-17 14:28:36.188,-0.17,0.21,9.08,-0.01,-0.08,0.13
2025-12-17 14:28:36.211,-0.18,0.18,9.02,-0.01,-0.08,0.12
2025-12-17 14:28:36.234,-0.15,0.2,9.08,-0.01,-0.08,0.13
2025-12-17 14:28:36.257,-0.22,0.13,9.05,-0.01,-0.08,0.13
2025-12-17 14:28:36.280,-0.24,0.15,8.99,-0.01,-0.08,0.13
2025-12-17 14:28:36.303,-0.23,0.06,8.97,-0.01,-0.08,0.13
2025-12-17 14:28:36.326,-0.2,0.16,9.07,-0.01,-0.08,0.13
2025-12-17 14:28:36.349,-0.29,0.17,9.05,-0.0,-0.08,0.13
2025-12-17 14:28:36.372,-0.27,0.22,9.0,-0.01,-0.08,0.13
2025-12-17 14:28:36.394,-0.23,0.24,9.01,-0.0,-0.08,0.13
2025-12-17 14:28:36.418,-0.2,0.23,9.0,-0.01,-0.08,0.13
2025-12-17 14:28:36.441,-0.3,0.22,9.04,-0.01,-0.08,0.13
2025-12-17 14:28:36.464,-0.24,0.22,9.0,-0.01,-0.08,0.12
2025-12-17 14:28:36.487,-0.25,0.19,9.01,-0.01,-0.08,0.13
2025-12-17 14:28:36.510,-0.21,0.14,9.06,-0.01,-0.08,0.13
2025-12-17 14:28:36.533,-0.23,0.15,9.08,-0.01,-0.08,0.13
2025-12-17 14:28:36.556,-0.21,0.11,8.99,-0.01,-0.08,0.13
2025-12-17 14:28:36.579,-0.12,0.2,9.09,-0.01,-0.08,0.13
2025-12-17 14:28:36.602,-0.25,0.16,8.98,-0.01,-0.08,0.13
2025-12-17 14:28:36.625,-0.23,0.17,9.04,-0.0,-0.08,0.13
2025-12-17 14:28:36.648,-0.21,0.17,9.03,-0.0,-0.08,0.13
2025-12-17 14:28:36.671,-0.26,0.2,9.01,-0.01,-0.08,0.13
2025-12-17 14:28:36.694,-0.2,0.2,9.05,-0.01,-0.08,0.12
2025-12-17 14:28:36.717,-0.21,0.26,9.18,-0.01,-0.08,0.12
2025-12-17 14:28:36.740,-0.19,0.23,9.02,-0.01,-0.08,0.13
2025-12-17 14:28:36.763,-0.2,0.23,9.0,-0.01,-0.08,0.13
2025-12-17 14:28:36.786,-0.2,0.19,9.02,-0.01,-0.08,0.12
2025-12-17 14:28:36.809,-0.18,0.18,9.06,-0.01,-0.08,0.13
2025-12-17 14:28:36.832,-0.31,0.1,9.0,-0.01,-0.08,0.13
2025-12-17 14:28:36.855,-0.2,0.16,9.12,-0.01,-0.08,0.13
2025-12-17 14:28:36.878,-0.17,0.17,9.14,-0.0,-0.08,0.12
2025-12-17 14:28:36.901,-0.23,0.16,8.95,-0.0,-0.08,0.13
2025-12-17 14:28:36.924,-0.26,0.17,9.0,-0.0,-0.08,0.13
2025-12-17 14:28:36.947,-0.24,0.23,8.99,-0.0,-0.08,0.13
2025-12-17 14:28:36.970,-0.17,0.22,8.97,-0.01,-0.08,0.12
2025-12-17 14:28:36.993,-0.22,0.2,8.99,-0.01,-0.08,0.13
2025-12-17 14:28:37.016,-0.2,0.2,9.09,-0.01,-0.08,0.13
2025-12-17 14:28:37.038,-0.19,0.22,9.0,-0.01,-0.08,0.13
2025-12-17 14:28:37.062,-0.19,0.24,9.11,-0.01,-0.08,0.13
2025-12-17 14:28:37.085,-0.19,0.18,9.05,-0.01,-0.08,0.13
2025-12-17 14:28:37.108,-0.32,0.15,9.02,-0.01,-0.08,0.13
2025-12-17 14:28:37.131,-0.2,0.12,9.0,-0.01,-0.08,0.13
2025-12-17 14:28:37.154,-0.19,0.17,8.99,-0.0,-0.08,0.13
2025-12-17 14:28:37.177,-0.3,0.19,9.0,-0.0,-0.08,0.13
2025-12-17 14:28:37.200,-0.26,0.21,8.96,-0.0,-0.08,0.13
2025-12-17 14:28:37.223,-0.16,0.23,9.05,-0.0,-0.08,0.13
2025-12-17 14:28:37.245,-0.18,0.22,9.11,-0.0,-0.08,0.13
2025-12-17 14:28:37.268,-0.24,0.15,9.04,-0.01,-0.08,0.13
2025-12-17 14:28:37.292,-0.24,0.22,8.99,-0.01,-0.08,0.13
2025-12-17 14:28:37.315,-0.23,0.21,8.96,-0.01,-0.08,0.13
2025-12-17 14:28:37.338,-0.2,0.2,9.15,-0.01,-0.08,0.13
2025-12-17 14:28:37.361,-0.27,0.13,9.06,-0.01,-0.08,0.13
2025-12-17 14:28:37.384,-0.28,0.15,8.99,-0.01,-0.08,0.13
2025-12-17 14:28:37.407,-0.21,0.08,9.05,-0.01,-0.08,0.13
2025-12-17 14:28:37.430,-0.22,0.14,9.06,-0.01,-0.08,0.13
2025-12-17 14:28:37.453,-0.24,0.2,9.07,-0.01,-0.08,0.13
2025-12-17 14:28:37.476,-0.21,0.19,9.03,-0.0,-0.08,0.12
2025-12-17 14:28:37.499,-0.23,0.18,8.99,-0.01,-0.08,0.13
2025-12-17 14:28:37.522,-0.21,0.25,9.03,-0.01,-0.08,0.13
2025-12-17 14:28:37.545,-0.23,0.21,9.02,-0.01,-0.08,0.12
2025-12-17 14:28:37.568,-0.19,0.19,9.0,-0.01,-0.08,0.13
2025-12-17 14:28:37.591,-0.19,0.19,9.01,-0.01,-0.08,0.13
2025-12-17 14:28:37.614,-0.21,0.18,9.04,-0.01,-0.08,0.13
2025-12-17 14:28:37.637,-0.24,0.11,8.98,-0.01,-0.08,0.13
2025-12-17 14:28:37.660,-0.28,0.14,9.04,-0.01,-0.08,0.13
2025-12-17 14:28:37.683,-0.25,0.05,9.06,-0.01,-0.08,0.13
2025-12-17 14:28:37.706,-0.26,0.16,8.99,-0.01,-0.08,0.12
2025-12-17 14:28:37.729,-0.23,0.17,8.98,-0.0,-0.08,0.13
2025-12-17 14:28:37.752,-0.26,0.21,9.0,-0.0,-0.08,0.13
2025-12-17 14:28:37.775,-0.15,0.22,9.06,-0.01,-0.08,0.13
2025-12-17 14:28:37.798,-0.21,0.29,9.05,-0.01,-0.08,0.13
2025-12-17 14:28:37.821,-0.22,0.2,9.11,-0.01,-0.08,0.12
2025-12-17 14:28:37.844,-0.24,0.17,8.89,-0.01,-0.08,0.13
2025-12-17 14:28:37.867,-0.22,0.26,9.04,-0.01,-0.08,0.12
2025-12-17 14:28:37.890,-0.19,0.19,9.06,-0.01,-0.08,0.12
2025-12-17 14:28:37.913,-0.26,0.11,9.04,-0.01,-0.08,0.12
2025-12-17 14:28:37.936,-0.32,0.17,9.03,-0.01,-0.08,0.12
2025-12-17 14:28:37.959,-0.21,0.08,9.03,-0.01,-0.08,0.13
2025-12-17 14:28:37.982,-0.26,0.05,9.11,-0.0,-0.08,0.13
2025-12-17 14:28:38.005,-0.32,0.22,9.07,-0.0,-0.08,0.13
2025-12-17 14:28:38.028,-0.26,0.22,9.02,-0.0,-0.08,0.12
2025-12-17 14:28:38.051,-0.12,0.27,9.05,-0.0,-0.08,0.12
2025-12-17 14:28:38.074,-0.19,0.28,9.02,-0.0,-0.08,0.13
2025-12-17 14:28:38.096,-0.17,0.2,9.16,-0.01,-0.08,0.12
2025-12-17 14:28:38.119,-0.19,0.2,9.0,-0.01,-0.08,0.13
2025-12-17 14:28:38.143,-0.17,0.25,9.07,-0.01,-0.08,0.13
2025-12-17 14:28:38.166,-0.17,0.19,9.08,-0.01,-0.08,0.13
2025-12-17 14:28:38.189,-0.29,0.06,9.05,-0.01,-0.08,0.12
2025-12-17 14:28:38.212,-0.27,0.14,8.99,-0.01,-0.08,0.13
2025-12-17 14:28:38.235,-0.24,0.08,9.14,-0.01,-0.08,0.13
2025-12-17 14:28:38.258,-0.15,0.07,8.98,-0.0,-0.08,0.12
2025-12-17 14:28:38.281,-0.28,0.18,9.03,-0.0,-0.08,0.13
2025-12-17 14:28:38.304,-0.29,0.19,9.04,-0.0,-0.08,0.13
2025-12-17 14:28:38.327,-0.19,0.17,9.04,-0.0,-0.08,0.13
2025-12-17 14:28:38.350,-0.14,0.28,8.98,-0.01,-0.08,0.12
2025-12-17 14:28:38.373,-0.18,0.26,8.94,-0.01,-0.08,0.13
2025-12-17 14:28:38.396,-0.22,0.22,8.98,-0.01,-0.08,0.13
2025-12-17 14:28:38.419,-0.17,0.22,9.05,-0.01,-0.08,0.12
2025-12-17 14:28:38.442,-0.2,0.15,8.99,-0.01,-0.08,0.12
2025-12-17 14:28:38.464,-0.21,0.14,9.08,-0.01,-0.08,0.12
2025-12-17 14:28:38.487,-0.21,0.13,9.15,-0.01,-0.08,0.13
2025-12-17 14:28:38.510,-0.26,0.11,9.02,-0.01,-0.08,0.13
2025-12-17 14:28:38.534,-0.25,0.14,9.03,-0.0,-0.08,0.13
2025-12-17 14:28:38.557,-0.27,0.14,9.08,-0.0,-0.08,0.13
2025-12-17 14:28:38.580,-0.26,0.18,8.97,-0.0,-0.08,0.13
2025-12-17 14:28:38.603,-0.18,0.27,8.89,-0.01,-0.08,0.13
2025-12-17 14:28:38.626,-0.21,0.24,9.05,-0.0,-0.08,0.13
2025-12-17 14:28:38.649,-0.22,0.24,8.95,-0.01,-0.08,0.12
2025-12-17 14:28:38.672,-0.15,0.25,9.12,-0.01,-0.08,0.13
2025-12-17 14:28:38.695,-0.14,0.19,9.03,-0.01,-0.08,0.12
2025-12-17 14:28:38.718,-0.16,0.17,9.05,-0.02,-0.08,0.13
2025-12-17 14:28:38.741,-0.24,0.21,9.06,-0.01,-0.08,0.13
2025-12-17 14:28:38.764,-0.22,0.16,9.08,-0.01,-0.08,0.13
2025-12-17 14:28:38.787,-0.22,0.14,9.12,-0.01,-0.08,0.12
2025-12-17 14:28:38.810,-0.3,0.16,8.97,-0.0,-0.08,0.13
2025-12-17 14:28:38.833,-0.23,0.14,9.05,-0.01,-0.08,0.13
2025-12-17 14:28:38.856,-0.22,0.13,9.02,-0.0,-0.08,0.13
2025-12-17 14:28:38.879,-0.18,0.2,9.09,-0.0,-0.08,0.12
2025-12-17 14:28:38.902,-0.24,0.19,8.99,-0.0,-0.08,0.13
2025-12-17 14:28:38.925,-0.22,0.25,8.92,-0.01,-0.09,0.13
2025-12-17 14:28:38.947,-0.22,0.28,8.95,-0.01,-0.08,0.13
2025-12-17 14:28:38.970,-0.2,0.17,9.0,-0.01,-0.08,0.13
2025-12-17 14:28:38.994,-0.18,0.18,9.05,-0.01,-0.08,0.13
2025-12-17 14:28:39.017,-0.16,0.15,9.03,-0.01,-0.08,0.13
2025-12-17 14:28:39.040,-0.17,0.12,9.01,-0.01,-0.08,0.13
2025-12-17 14:28:39.063,-0.24,0.08,8.99,-0.01,-0.08,0.12
2025-12-17 14:28:39.086,-0.26,0.18,9.01,-0.01,-0.08,0.13
2025-12-17 14:28:39.109,-0.23,0.14,8.99,-0.01,-0.08,0.13
2025-12-17 14:28:39.132,-0.12,0.14,9.03,-0.0,-0.08,0.13
2025-12-17 14:28:39.155,-0.25,0.2,9.01,-0.0,-0.08,0.12
2025-12-17 14:28:39.178,-0.32,0.2,9.05,-0.0,-0.08,0.12
2025-12-17 14:28:39.201,-0.27,0.32,9.05,-0.0,-0.08,0.13
2025-12-17 14:28:39.224,-0.27,0.25,8.95,-0.01,-0.08,0.13
2025-12-17 14:28:39.247,-0.31,0.28,9.01,-0.01,-0.08,0.13
2025-12-17 14:28:39.270,-0.26,0.2,9.15,-0.01,-0.08,0.13
2025-12-17 14:28:39.293,-0.15,0.07,9.05,-0.01,-0.08,0.13
2025-12-17 14:28:39.315,-0.19,0.11,9.01,-0.01,-0.08,0.13
2025-12-17 14:28:39.339,-0.18,0.16,9.03,-0.01,-0.08,0.13
2025-12-17 14:28:39.362,-0.2,0.18,9.02,-0.01,-0.08,0.13
2025-12-17 14:28:39.385,-0.2,0.16,9.04,-0.01,-0.08,0.13
2025-12-17 14:28:39.408,-0.13,0.17,9.08,-0.01,-0.08,0.12
2025-12-17 14:28:39.431,-0.17,0.1,9.01,-0.0,-0.08,0.13
2025-12-17 14:28:39.454,-0.23,0.2,9.11,0.0,-0.08,0.13
2025-12-17 14:28:39.477,-0.27,0.21,8.88,-0.0,-0.08,0.13
2025-12-17 14:28:39.500,-0.22,0.21,9.1,-0.0,-0.08,0.12
2025-12-17 14:28:39.523,-0.33,0.26,9.0,-0.0,-0.08,0.12
2025-12-17 14:28:39.546,-0.36,0.29,8.99,-0.01,-0.08,0.13
2025-12-17 14:28:39.569,-0.23,0.17,8.99,-0.01,-0.08,0.13
2025-12-17 14:28:39.592,-0.19,0.16,9.05,-0.01,-0.09,0.12
2025-12-17 14:28:39.615,-0.21,0.13,8.99,-0.01,-0.08,0.12
2025-12-17 14:28:39.638,-0.25,0.15,8.96,-0.01,-0.08,0.13
2025-12-17 14:28:39.661,-0.11,0.17,9.02,-0.01,-0.08,0.13
2025-12-17 14:28:39.684,-0.11,0.17,9.07,-0.0,-0.08,0.13
2025-12-17 14:28:39.707,-0.2,0.17,9.01,-0.01,-0.08,0.13
2025-12-17 14:28:39.730,-0.17,0.11,9.01,-0.0,-0.08,0.13
2025-12-17 14:28:39.759,-0.16,0.17,9.04,-0.0,-0.08,0.13
2025-12-17 14:28:39.776,-0.23,0.28,9.03,-0.0,-0.08,0.13
2025-12-17 14:28:39.799,-0.27,0.27,9.09,-0.01,-0.08,0.13
2025-12-17 14:28:39.822,-0.27,0.17,9.05,-0.01,-0.08,0.13
2025-12-17 14:28:39.845,-0.3,0.3,9.01,-0.01,-0.08,0.13
2025-12-17 14:28:39.868,-0.27,0.14,9.11,-0.01,-0.08,0.13
2025-12-17 14:28:39.891,-0.26,0.13,9.0,-0.01,-0.08,0.13
2025-12-17 14:28:39.913,-0.25,0.16,9.07,-0.01,-0.08,0.13
2025-12-17 14:28:39.937,-0.12,0.21,8.98,-0.01,-0.08,0.13
2025-12-17 14:28:39.960,-0.17,0.2,8.99,-0.01,-0.08,0.13
2025-12-17 14:28:39.983,-0.19,0.13,9.07,-0.01,-0.08,0.13
2025-12-17 14:28:40.006,-0.19,0.2,9.0,-0.01,-0.08,0.13
2025-12-17 14:28:40.029,-0.16,0.12,8.94,-0.01,-0.08,0.13
2025-12-17 14:28:40.052,-0.18,0.14,9.04,-0.01,-0.08,0.13
2025-12-17 14:28:40.075,-0.18,0.25,9.03,-0.01,-0.08,0.13
2025-12-17 14:28:40.098,-0.19,0.33,9.04,-0.01,-0.08,0.13
2025-12-17 14:28:40.121,-0.28,0.19,9.05,-0.01,-0.08,0.13
2025-12-17 14:28:40.144,-0.27,0.13,9.02,-0.01,-0.08,0.12
2025-12-17 14:28:40.167,-0.26,0.19,9.05,-0.01,-0.08,0.13
2025-12-17 14:28:40.190,-0.3,0.16,9.05,-0.01,-0.08,0.12
2025-12-17 14:28:40.213,-0.16,0.07,9.14,-0.01,-0.08,0.13
2025-12-17 14:28:40.236,-0.22,0.27,9.05,-0.01,-0.08,0.12
2025-12-17 14:28:40.259,-0.2,0.12,8.97,-0.0,-0.08,0.13
2025-12-17 14:28:40.282,-0.26,0.15,9.08,-0.0,-0.08,0.13
2025-12-17 14:28:40.305,-0.21,0.21,8.99,-0.0,-0.08,0.13
2025-12-17 14:28:40.328,-0.17,0.13,9.04,-0.01,-0.08,0.13
2025-12-17 14:28:40.351,-0.16,0.18,9.08,-0.01,-0.08,0.13
2025-12-17 14:28:40.374,-0.16,0.26,8.91,-0.01,-0.08,0.13
2025-12-17 14:28:40.397,-0.16,0.28,9.04,-0.01,-0.08,0.13
2025-12-17 14:28:40.420,-0.22,0.11,9.05,-0.01,-0.08,0.13
2025-12-17 14:28:40.443,-0.22,0.13,8.94,-0.01,-0.08,0.12
2025-12-17 14:28:40.466,-0.29,0.25,9.08,-0.01,-0.08,0.13
2025-12-17 14:28:40.489,-0.28,0.1,9.06,-0.01,-0.08,0.12
2025-12-17 14:28:40.512,-0.33,0.18,8.98,-0.01,-0.08,0.13
2025-12-17 14:28:40.535,-0.31,0.17,9.0,-0.01,-0.08,0.13
2025-12-17 14:28:40.558,-0.17,0.17,9.06,-0.0,-0.08,0.12
2025-12-17 14:28:40.582,-0.21,0.17,8.99,-0.0,-0.08,0.13
2025-12-17 14:28:40.604,-0.2,0.21,9.03,-0.0,-0.08,0.13
2025-12-17 14:28:40.626,-0.14,0.24,8.96,-0.01,-0.08,0.12
2025-12-17 14:28:40.650,-0.13,0.27,9.07,-0.01,-0.08,0.13
2025-12-17 14:28:40.673,-0.18,0.21,9.03,-0.01,-0.08,0.13
2025-12-17 14:28:40.696,-0.28,0.17,9.05,-0.01,-0.08,0.12
2025-12-17 14:28:40.719,-0.26,0.09,9.01,-0.01,-0.08,0.13
2025-12-17 14:28:40.742,-0.27,0.22,9.05,-0.01,-0.08,0.13
2025-12-17 14:28:40.765,-0.21,0.16,9.01,-0.01,-0.08,0.12
2025-12-17 14:28:40.788,-0.33,0.13,9.02,-0.01,-0.08,0.13
2025-12-17 14:28:40.811,-0.32,0.16,9.0,-0.01,-0.08,0.13
2025-12-17 14:28:40.834,-0.2,0.16,9.03,-0.01,-0.08,0.13
2025-12-17 14:28:40.857,-0.23,0.15,9.1,-0.0,-0.08,0.13
2025-12-17 14:28:40.880,-0.26,0.21,9.06,-0.01,-0.08,0.13
2025-12-17 14:28:40.903,-0.16,0.24,9.05,-0.0,-0.08,0.13
2025-12-17 14:28:40.926,-0.14,0.24,9.03,-0.0,-0.08,0.13
2025-12-17 14:28:40.949,-0.16,0.2,9.06,-0.01,-0.08,0.13
2025-12-17 14:28:40.972,-0.14,0.19,9.03,-0.01,-0.08,0.13
2025-12-17 14:28:40.994,-0.25,0.28,9.04,-0.01,-0.08,0.13
2025-12-17 14:28:41.018,-0.25,0.15,9.08,-0.01,-0.08,0.12
2025-12-17 14:28:41.041,-0.19,0.15,9.04,-0.01,-0.08,0.13
2025-12-17 14:28:41.064,-0.26,0.2,9.07,-0.01,-0.08,0.13
2025-12-17 14:28:41.087,-0.32,0.14,9.1,-0.01,-0.08,0.13
2025-12-17 14:28:41.110,-0.28,0.09,9.08,-0.0,-0.08,0.13
2025-12-17 14:28:41.133,-0.2,0.11,9.0,-0.0,-0.08,0.13
2025-12-17 14:28:41.156,-0.18,0.17,8.99,-0.0,-0.08,0.13
2025-12-17 14:28:41.179,-0.18,0.21,8.99,-0.0,-0.08,0.12
2025-12-17 14:28:41.202,-0.21,0.28,9.02,-0.01,-0.08,0.13
2025-12-17 14:28:41.225,-0.22,0.22,9.11,-0.01,-0.08,0.13
2025-12-17 14:28:41.248,-0.18,0.13,9.0,-0.01,-0.08,0.12
2025-12-17 14:28:41.271,-0.09,0.17,9.06,-0.01,-0.08,0.13
2025-12-17 14:28:41.294,-0.25,0.17,9.01,-0.01,-0.08,0.12
2025-12-17 14:28:41.317,-0.22,0.13,8.99,-0.01,-0.08,0.13
2025-12-17 14:28:41.340,-0.21,0.18,9.02,-0.01,-0.08,0.13
2025-12-17 14:28:41.363,-0.25,0.11,9.11,-0.01,-0.08,0.13
2025-12-17 14:28:41.386,-0.3,0.12,9.06,-0.01,-0.08,0.13
2025-12-17 14:28:41.409,-0.28,0.16,9.1,-0.0,-0.08,0.12
2025-12-17 14:28:41.432,-0.22,0.1,9.08,-0.0,-0.08,0.13
2025-12-17 14:28:41.455,-0.22,0.23,9.0,0.0,-0.08,0.12
2025-12-17 14:28:41.478,-0.2,0.29,9.01,-0.01,-0.08,0.13
2025-12-17 14:28:41.501,-0.16,0.29,9.12,-0.01,-0.08,0.13
2025-12-17 14:28:41.524,-0.14,0.24,9.02,-0.01,-0.08,0.13
2025-12-17 14:28:41.547,-0.16,0.22,9.13,-0.01,-0.08,0.13
2025-12-17 14:28:41.570,-0.13,0.14,8.94,-0.01,-0.08,0.13
2025-12-17 14:28:41.592,-0.22,0.27,9.01,-0.01,-0.08,0.12
2025-12-17 14:28:41.616,-0.2,0.18,9.04,-0.01,-0.08,0.13
2025-12-17 14:28:41.639,-0.26,0.08,9.08,-0.01,-0.08,0.13
2025-12-17 14:28:41.662,-0.32,0.14,9.09,-0.01,-0.08,0.12
2025-12-17 14:28:41.685,-0.23,0.08,9.02,-0.0,-0.08,0.13
2025-12-17 14:28:41.708,-0.22,0.1,9.03,-0.0,-0.08,0.13
2025-12-17 14:28:41.731,-0.25,0.25,9.06,-0.01,-0.08,0.12
2025-12-17 14:28:41.754,-0.26,0.2,8.99,-0.01,-0.08,0.13
2025-12-17 14:28:41.777,-0.22,0.23,9.03,-0.01,-0.08,0.12
2025-12-17 14:28:41.800,-0.23,0.28,8.94,-0.01,-0.08,0.13
2025-12-17 14:28:41.823,-0.14,0.25,9.02,-0.01,-0.08,0.12
2025-12-17 14:28:41.846,-0.17,0.11,9.09,-0.01,-0.08,0.13
2025-12-17 14:28:41.869,-0.14,0.18,9.03,-0.01,-0.08,0.12
2025-12-17 14:28:41.892,-0.19,0.15,8.94,-0.01,-0.08,0.13
2025-12-17 14:28:41.915,-0.18,0.19,8.96,-0.01,-0.08,0.13
2025-12-17 14:28:41.939,-0.22,0.14,9.03,-0.01,-0.08,0.12
2025-12-17 14:28:41.960,-0.27,0.2,9.11,-0.01,-0.08,0.13
2025-12-17 14:28:41.984,-0.18,0.09,9.05,-0.01,-0.08,0.13
2025-12-17 14:28:42.007,-0.25,0.17,9.07,-0.01,-0.08,0.13
2025-12-17 14:28:42.030,-0.28,0.26,9.04,-0.0,-0.08,0.13
2025-12-17 14:28:42.053,-0.31,0.24,9.03,-0.01,-0.08,0.13
2025-12-17 14:28:42.076,-0.29,0.23,9.02,-0.01,-0.08,0.13
2025-12-17 14:28:42.099,-0.18,0.25,8.97,-0.01,-0.08,0.13
2025-12-17 14:28:42.122,-0.21,0.18,9.11,-0.01,-0.08,0.13
2025-12-17 14:28:42.145,-0.12,0.11,9.03,-0.01,-0.08,0.13
2025-12-17 14:28:42.168,-0.11,0.17,9.03,-0.01,-0.08,0.13
2025-12-17 14:28:42.191,-0.15,0.06,9.02,-0.01,-0.08,0.12
2025-12-17 14:28:42.214,-0.2,0.11,9.05,-0.01,-0.08,0.12
2025-12-17 14:28:42.237,-0.18,0.24,9.07,-0.0,-0.08,0.13
2025-12-17 14:28:42.260,-0.18,0.11,8.98,-0.01,-0.08,0.12
2025-12-17 14:28:42.283,-0.22,0.15,9.07,-0.0,-0.08,0.13
2025-12-17 14:28:42.307,-0.28,0.2,9.0,-0.0,-0.08,0.13
2025-12-17 14:28:42.329,-0.31,0.15,8.98,-0.0,-0.08,0.13
2025-12-17 14:28:42.352,-0.24,0.22,9.02,-0.01,-0.08,0.13
2025-12-17 14:28:42.375,-0.3,0.29,9.03,-0.01,-0.08,0.13
2025-12-17 14:28:42.398,-0.25,0.18,9.05,-0.01,-0.08,0.13
2025-12-17 14:28:42.421,-0.21,0.1,8.97,-0.01,-0.08,0.13
2025-12-17 14:28:42.444,-0.15,0.2,9.05,-0.01,-0.08,0.12
2025-12-17 14:28:42.467,-0.18,0.18,9.04,-0.01,-0.08,0.13
2025-12-17 14:28:42.490,-0.22,0.11,9.03,-0.01,-0.08,0.12
2025-12-17 14:28:42.513,-0.19,0.21,9.13,-0.01,-0.08,0.13
2025-12-17 14:28:42.536,-0.18,0.11,9.02,-0.01,-0.08,0.13
2025-12-17 14:28:42.559,-0.15,0.16,9.1,-0.0,-0.08,0.13
2025-12-17 14:28:42.582,-0.23,0.21,9.0,-0.0,-0.08,0.13
2025-12-17 14:28:42.605,-0.26,0.22,9.06,-0.01,-0.08,0.13
2025-12-17 14:28:42.628,-0.2,0.23,9.02,-0.01,-0.08,0.13
2025-12-17 14:28:42.651,-0.26,0.27,9.05,-0.01,-0.08,0.13
2025-12-17 14:28:42.674,-0.22,0.19,9.01,-0.01,-0.08,0.13
2025-12-17 14:28:42.697,-0.2,0.13,9.06,-0.01,-0.08,0.13
2025-12-17 14:28:42.721,-0.13,0.19,9.01,-0.01,-0.08,0.13
2025-12-17 14:28:42.743,-0.23,0.16,9.13,-0.01,-0.08,0.13
2025-12-17 14:28:42.766,-0.32,0.05,9.11,-0.01,-0.08,0.13
2025-12-17 14:28:42.789,-0.17,0.15,9.09,-0.01,-0.08,0.13
2025-12-17 14:28:42.812,-0.16,0.11,9.07,-0.0,-0.08,0.13
2025-12-17 14:28:42.835,-0.18,0.13,9.03,-0.0,-0.07,0.12
2025-12-17 14:28:42.858,-0.26,0.24,9.04,-0.0,-0.08,0.12
2025-12-17 14:28:42.881,-0.23,0.18,8.97,-0.0,-0.08,0.13
2025-12-17 14:28:42.904,-0.27,0.21,8.94,-0.01,-0.08,0.13
2025-12-17 14:28:42.927,-0.22,0.21,9.04,-0.01,-0.08,0.12
2025-12-17 14:28:42.950,-0.28,0.18,8.97,-0.01,-0.08,0.13
2025-12-17 14:28:42.973,-0.24,0.17,9.04,-0.01,-0.08,0.13
2025-12-17 14:28:42.996,-0.24,0.17,9.08,-0.01,-0.08,0.13
2025-12-17 14:28:43.019,-0.22,0.16,9.01,-0.01,-0.08,0.13
2025-12-17 14:28:43.042,-0.27,0.16,9.05,-0.01,-0.08,0.12
2025-12-17 14:28:43.065,-0.2,0.16,9.0,-0.01,-0.08,0.13
2025-12-17 14:28:43.089,-0.2,0.13,9.14,-0.01,-0.08,0.13
2025-12-17 14:28:43.111,-0.23,0.21,9.02,-0.0,-0.08,0.13
2025-12-17 14:28:43.134,-0.23,0.16,9.09,-0.01,-0.08,0.12
2025-12-17 14:28:43.157,-0.2,0.15,8.97,-0.01,-0.08,0.13
2025-12-17 14:28:43.180,-0.15,0.21,8.94,-0.01,-0.08,0.13
2025-12-17 14:28:43.203,-0.22,0.2,9.05,-0.01,-0.08,0.13
2025-12-17 14:28:43.226,-0.22,0.27,9.13,-0.01,-0.08,0.13
2025-12-17 14:28:43.249,-0.28,0.17,9.05,-0.01,-0.08,0.13
2025-12-17 14:28:43.272,-0.23,0.15,9.0,-0.01,-0.08,0.13
2025-12-17 14:28:43.295,-0.29,0.15,9.08,-0.01,-0.08,0.13
2025-12-17 14:28:43.318,-0.26,0.07,9.08,-0.01,-0.08,0.13
2025-12-17 14:28:43.341,-0.24,0.15,9.1,-0.01,-0.08,0.13
2025-12-17 14:28:43.364,-0.23,0.14,9.03,-0.0,-0.08,0.13
2025-12-17 14:28:43.386,-0.13,0.09,8.98,0.0,-0.08,0.12
2025-12-17 14:28:43.410,-0.14,0.18,9.04,-0.0,-0.08,0.13
2025-12-17 14:28:43.433,-0.24,0.29,8.95,-0.0,-0.08,0.13
2025-12-17 14:28:43.456,-0.17,0.22,8.94,-0.01,-0.08,0.13
2025-12-17 14:28:43.479,-0.2,0.29,8.99,-0.01,-0.08,0.13
2025-12-17 14:28:43.502,-0.19,0.21,9.07,-0.01,-0.08,0.13
2025-12-17 14:28:43.525,-0.22,0.19,9.07,-0.01,-0.08,0.13
2025-12-17 14:28:43.548,-0.24,0.17,9.05,-0.01,-0.08,0.13
2025-12-17 14:28:43.571,-0.22,0.14,8.98,-0.01,-0.08,0.13
2025-12-17 14:28:43.595,-0.26,0.17,9.12,-0.01,-0.08,0.12
2025-12-17 14:28:43.617,-0.27,0.04,9.04,-0.01,-0.08,0.13
2025-12-17 14:28:43.640,-0.25,0.11,9.07,-0.0,-0.08,0.13
2025-12-17 14:28:43.663,-0.13,0.11,9.06,-0.01,-0.08,0.13
2025-12-17 14:28:43.686,-0.21,0.08,9.08,-0.0,-0.08,0.13
2025-12-17 14:28:43.709,-0.2,0.22,9.05,-0.0,-0.08,0.13
2025-12-17 14:28:43.732,-0.21,0.25,9.02,-0.0,-0.08,0.13
2025-12-17 14:28:43.755,-0.23,0.26,9.02,-0.01,-0.08,0.13
2025-12-17 14:28:43.778,-0.23,0.23,9.03,-0.01,-0.08,0.13
2025-12-17 14:28:43.801,-0.19,0.17,9.12,-0.01,-0.08,0.13
2025-12-17 14:28:43.824,-0.24,0.13,9.0,-0.01,-0.08,0.13
2025-12-17 14:28:43.847,-0.23,0.25,9.04,-0.01,-0.08,0.13
2025-12-17 14:28:43.870,-0.18,0.13,9.04,-0.01,-0.08,0.13
2025-12-17 14:28:43.893,-0.22,0.14,9.08,-0.01,-0.08,0.12
2025-12-17 14:28:43.916,-0.28,0.09,9.03,-0.01,-0.08,0.12
2025-12-17 14:28:43.940,-0.23,0.11,9.07,-0.0,-0.08,0.13
2025-12-17 14:28:43.963,-0.2,0.09,9.03,-0.0,-0.08,0.12
2025-12-17 14:28:43.985,-0.31,0.21,9.09,-0.0,-0.08,0.13
2025-12-17 14:28:44.008,-0.27,0.23,9.01,-0.01,-0.08,0.12
2025-12-17 14:28:44.031,-0.19,0.26,8.98,-0.01,-0.08,0.12
2025-12-17 14:28:44.054,-0.16,0.25,9.04,-0.01,-0.08,0.13
2025-12-17 14:28:44.077,-0.18,0.27,9.03,-0.01,-0.08,0.13
2025-12-17 14:28:44.100,-0.24,0.19,9.03,-0.01,-0.08,0.13
2025-12-17 14:28:44.123,-0.13,0.18,9.15,-0.01,-0.08,0.12
2025-12-17 14:28:44.146,-0.18,0.12,9.04,-0.01,-0.08,0.13
2025-12-17 14:28:44.169,-0.19,0.11,9.07,-0.01,-0.08,0.13
2025-12-17 14:28:44.192,-0.28,0.08,9.04,-0.01,-0.08,0.13
2025-12-17 14:28:44.215,-0.28,0.13,9.03,-0.0,-0.08,0.13
2025-12-17 14:28:44.238,-0.19,0.1,9.09,-0.01,-0.08,0.13
2025-12-17 14:28:44.261,-0.23,0.2,9.07,-0.0,-0.08,0.13
2025-12-17 14:28:44.285,-0.19,0.2,9.0,-0.0,-0.08,0.13
2025-12-17 14:28:44.308,-0.25,0.27,9.0,-0.0,-0.08,0.13
2025-12-17 14:28:44.330,-0.18,0.25,9.07,-0.01,-0.08,0.13
2025-12-17 14:28:44.353,-0.22,0.24,9.04,-0.01,-0.08,0.12
2025-12-17 14:28:44.376,-0.19,0.17,9.06,-0.02,-0.08,0.13
2025-12-17 14:28:44.399,-0.16,0.16,8.99,-0.01,-0.08,0.12
2025-12-17 14:28:44.422,-0.22,0.12,9.01,-0.01,-0.08,0.13
2025-12-17 14:28:44.445,-0.15,0.1,9.01,-0.01,-0.08,0.12
2025-12-17 14:28:44.468,-0.25,0.12,9.04,-0.01,-0.08,0.13
2025-12-17 14:28:44.491,-0.31,0.2,9.04,-0.0,-0.08,0.13
2025-12-17 14:28:44.514,-0.27,0.1,9.01,-0.0,-0.08,0.13
2025-12-17 14:28:44.537,-0.21,0.19,8.96,0.0,-0.08,0.13
2025-12-17 14:28:44.560,-0.28,0.18,8.99,0.0,-0.08,0.13
2025-12-17 14:28:44.583,-0.22,0.18,9.0,-0.0,-0.08,0.13
2025-12-17 14:28:44.606,-0.13,0.25,9.0,-0.01,-0.08,0.12
2025-12-17 14:28:44.629,-0.14,0.3,9.04,-0.01,-0.08,0.13
2025-12-17 14:28:44.652,-0.14,0.15,8.98,-0.01,-0.08,0.13
2025-12-17 14:28:44.675,-0.15,0.15,8.96,-0.01,-0.08,0.13
2025-12-17 14:28:44.699,-0.12,0.19,9.04,-0.01,-0.08,0.13
2025-12-17 14:28:44.721,-0.19,0.13,9.0,-0.01,-0.08,0.12
2025-12-17 14:28:44.744,-0.28,0.12,9.06,-0.01,-0.08,0.13
2025-12-17 14:28:44.767,-0.37,0.07,8.98,-0.01,-0.08,0.13
2025-12-17 14:28:44.790,-0.23,0.16,9.05,-0.01,-0.08,0.13
2025-12-17 14:28:44.813,-0.3,0.17,9.04,-0.01,-0.08,0.12
2025-12-17 14:28:44.836,-0.28,0.25,9.05,-0.0,-0.08,0.13
2025-12-17 14:28:44.859,-0.29,0.32,8.96,-0.0,-0.08,0.13
2025-12-17 14:28:44.882,-0.17,0.3,8.94,-0.01,-0.08,0.13
2025-12-17 14:28:44.905,-0.15,0.25,8.99,-0.01,-0.08,0.12
2025-12-17 14:28:44.930,-0.19,0.21,9.07,-0.01,-0.08,0.12
2025-12-17 14:28:44.951,-0.2,0.15,8.99,-0.01,-0.08,0.13
2025-12-17 14:28:44.974,-0.04,0.15,9.0,-0.01,-0.08,0.13
2025-12-17 14:28:44.997,-0.07,0.16,9.04,-0.01,-0.08,0.12
2025-12-17 14:28:45.020,-0.27,0.06,9.11,-0.01,-0.08,0.12
2025-12-17 14:28:45.043,-0.25,0.11,9.13,-0.01,-0.08,0.13
2025-12-17 14:28:45.067,-0.24,0.09,9.05,-0.0,-0.08,0.13
2025-12-17 14:28:45.089,-0.25,0.07,8.94,0.0,-0.07,0.13
2025-12-17 14:28:45.112,-0.31,0.24,9.11,-0.0,-0.08,0.13
2025-12-17 14:28:45.135,-0.27,0.25,9.01,-0.0,-0.08,0.13
2025-12-17 14:28:45.158,-0.27,0.23,9.06,-0.0,-0.08,0.13
2025-12-17 14:28:45.181,-0.29,0.25,8.95,-0.01,-0.08,0.13
2025-12-17 14:28:45.204,-0.23,0.27,9.03,-0.01,-0.08,0.13
2025-12-17 14:28:45.227,-0.25,0.14,9.02,-0.01,-0.08,0.13
2025-12-17 14:28:45.250,-0.18,0.12,9.04,-0.01,-0.08,0.12
2025-12-17 14:28:45.274,-0.09,0.14,9.04,-0.01,-0.08,0.12
2025-12-17 14:28:45.296,-0.19,0.11,9.04,-0.01,-0.08,0.13
2025-12-17 14:28:45.319,-0.25,0.21,8.97,-0.0,-0.08,0.13
2025-12-17 14:28:45.342,-0.25,0.13,9.07,-0.01,-0.08,0.13
2025-12-17 14:28:45.365,-0.23,0.09,9.05,-0.01,-0.07,0.12
2025-12-17 14:28:45.388,-0.21,0.28,9.03,-0.0,-0.08,0.13
2025-12-17 14:28:45.411,-0.3,0.25,8.89,-0.01,-0.08,0.13
2025-12-17 14:28:45.434,-0.33,0.23,9.02,-0.01,-0.08,0.12
2025-12-17 14:28:45.457,-0.18,0.31,9.11,-0.01,-0.08,0.12
2025-12-17 14:28:45.480,-0.26,0.22,8.99,-0.01,-0.08,0.12
2025-12-17 14:28:45.503,-0.24,0.15,9.0,-0.01,-0.08,0.13
2025-12-17 14:28:45.526,-0.24,0.19,9.02,-0.01,-0.08,0.13
2025-12-17 14:28:45.549,-0.17,0.05,9.07,-0.01,-0.08,0.13
